#frame,timestamp,world_timestamp,transform.x,transform.y,transform.z,accelerometer.x,accelerometer.y,accelerometer.z,gyroscope.x,gyroscope.y,gyroscope.z,compass
8,1.954726972617209,16780961.4806162,88.71004486083984,237.42999267578125,2.8996472358703613,-0.0004274174862075597,0.00017132361244875938,9.811287879943848,0.0005069205653853714,0.0005109533085487783,0.00047399383038282394,4.712395668029785
10,1.966726972721517,16780963.0665233,88.71004486083984,237.42999267578125,2.897883176803589,2464210.5,6595261.5,-80584.9375,0.00044834770960733294,0.0005221284227445722,0.0004943138337694108,4.712395668029785
11,1.9727269727736712,16780963.3179858,88.71004486083984,237.42999267578125,2.896472215652466,0.0009905350161716342,0.00015959827578626573,19.614978790283203,0.0004858275642618537,0.0005568049382418394,0.0005056778900325298,4.712395668029785
12,1.9787269728258252,16780963.5686203,88.71004486083984,237.42999267578125,2.8947081565856934,-0.0007081437506712973,0.00013624411076307297,0.005625958554446697,0.0004794063279405236,0.0005558694247156382,0.0005335350288078189,4.712395668029785
13,1.9847269728779793,16780963.8012467,88.71004486083984,237.42999267578125,2.8925914764404297,0.00020912205218337476,0.0004051739233545959,0.01556616835296154,0.000497509550768882,0.0004949143622070551,0.0004980227677151561,4.712395668029785
14,1.9907269729301333,16780964.0463881,88.71004486083984,237.42999267578125,2.8901216983795166,-0.0003264356928411871,0.000653289956972003,0.000258793996181339,0.00048757600598037243,0.000532156671397388,0.000553084013517946,4.712395668029785
15,1.9967269729822874,16780964.2990027,88.71004486083984,237.42999267578125,2.887299060821533,2.581956869107671e-05,0.00017795978055801243,0.00934333074837923,0.00047489654389210045,0.0004936555633321404,0.0005429400480352342,4.712395668029785
16,2.0027269730344415,16780964.532671,88.71004486083984,237.42999267578125,2.8841240406036377,-0.0005924946162849665,-0.0003528278321027756,0.01980828307569027,0.0004586571012623608,0.00047248596092686057,0.000473664200399071,4.712395668029785
17,2.0087269730865955,16780964.8080763,88.71004486083984,237.42999267578125,2.880596160888672,0.0002012668555835262,0.00019694889488164335,0.010311614722013474,0.0005117713590152562,0.0005349180428311229,0.000538481108378619,4.712395668029785
18,2.0147269731387496,16780965.0470667,88.71004486083984,237.42999267578125,2.8767154216766357,0.0010351829696446657,0.0006039885338395834,0.00028560133068822324,0.00050079554785043,0.00046378455590456724,0.000530268473085016,4.712395668029785
19,2.0207269731909037,16780965.3042247,88.71004486083984,237.42999267578125,2.87248158454895,-2.0346002202131785e-05,6.800228584324941e-05,0.010310564190149307,0.00045542308362200856,0.000526716117747128,0.0004814540152437985,4.712395668029785
20,2.0267269732430577,16780965.5457579,88.71004486083984,237.42999267578125,2.8678953647613525,0.0004764373879879713,-0.00030532016535289586,0.024587271735072136,0.0005037408554926515,0.0005193278775550425,0.00046027766074985266,4.712395668029785
21,2.032726973295212,16780965.8141912,88.71004486083984,237.42999267578125,2.8629562854766846,0.0006179027259349823,0.0004951305454596877,-0.0049576363526284695,0.0004959760699421167,0.0005299017066136003,0.0004781760217156261,4.712395668029785
22,2.038726973347366,16780966.0621039,88.71004486083984,237.42999267578125,2.857664108276367,-0.0009168904507532716,-0.0004893492441624403,0.01581609807908535,0.0005019807140342891,0.000507874705363065,0.0005165289621800184,4.712395668029785
23,2.04472697339952,16780966.3302155,88.71004486083984,237.42999267578125,2.8520193099975586,0.0006822745781391859,0.00025826445198617876,0.009899428114295006,0.00045068562030792236,0.00048748476547189057,0.0005094797816127539,4.712395668029785
24,2.050726973451674,16780966.6018827,88.71004486083984,237.42999267578125,2.8460216522216797,-0.0004293167148716748,-0.0005370069411583245,0.009981281124055386,0.0004637708480004221,0.00048563280142843723,0.0004508748825173825,4.712395668029785
25,2.056726973503828,16780966.8671558,88.71004486083984,237.42999267578125,2.8396713733673096,0.0010765237966552377,0.0004166364960838109,0.009773560799658298,0.0004529592697508633,0.0004945928230881691,0.0004750704683829099,4.712395668029785
26,2.062726973555982,16780967.1378293,88.71004486083984,237.42999267578125,2.83296799659729,-0.0007408347446471453,0.00021454594389069825,0.010372833348810673,0.0005146797047927976,0.0005130348145030439,0.0005268583190627396,4.712395668029785
27,2.068726973608136,16780967.3963245,88.71004486083984,237.42999267578125,2.8259119987487793,-0.0003851292422041297,-0.0004999127122573555,0.009853838942945004,0.0004684671002905816,0.0005010665627196431,0.0004544448747765273,4.712395668029785
28,2.0747269736602902,16780967.6597653,88.71004486083984,237.42999267578125,2.8185033798217773,-0.0004001337510999292,-0.0005246828659437597,0.008778870105743408,0.0004681666905526072,0.0005363136297091842,0.00045828730799257755,4.712395668029785
29,2.0807269737124443,16780967.9252677,88.71004486083984,237.42999267578125,2.810741424560547,-0.000591970281675458,-0.0002791688311845064,0.005059405695647001,0.0004956941120326519,0.0005384116666391492,0.0005796273471787572,4.712395668029785
30,2.0867269737645984,16780968.2063793,88.71004486083984,237.42999267578125,2.8026270866394043,0.00039383029798045754,0.00035083029069937766,0.01577553153038025,0.000513831852003932,0.0005342798540368676,0.0005084490403532982,4.712395668029785
31,2.0927269738167524,16780968.4612187,88.71004486083984,237.42999267578125,2.7941601276397705,-0.0006088021327741444,0.0002848974254447967,0.015441575087606907,0.0004797602305188775,0.00048311727005057037,0.0004935925244353712,4.712395668029785
32,2.0987269738689065,16780968.7433568,88.71004486083984,237.42999267578125,2.785339832305908,-0.00023975757358130068,-0.0006943358457647264,-0.00039846065919846296,0.0005328395054675639,0.0004961549420841038,0.0005213309777900577,4.712395668029785
33,2.1047269739210606,16780968.9987596,88.71004486083984,237.42999267578125,2.776167154312134,-0.0006649501156061888,-0.0006481923628598452,0.014279622584581375,0.0005126880132593215,0.000534544640686363,0.0004510230210144073,4.712395668029785
34,2.1107269739732146,16780969.2873401,88.71004486083984,237.42999267578125,2.766641855239868,-0.000761644565500319,-0.00012038146087434143,0.015875505283474922,0.00044944320688955486,0.0004648624162655324,0.00048301677452400327,4.712395668029785
35,2.1167269740253687,16780969.5386658,88.71004486083984,237.42999267578125,2.756763219833374,-6.111402763053775e-05,2.3363247237284668e-05,-0.0007598227239213884,0.0004778348084073514,0.00046130691771395504,0.0005103723960928619,4.712395668029785
36,2.1227269740775228,16780969.8274949,88.71004486083984,237.42999267578125,2.7465319633483887,0.0003752179036382586,-0.0007138800574466586,0.015500145964324474,0.0005171066732145846,0.0004883183864876628,0.0004886307870037854,4.712395668029785
37,2.128726974129677,16780970.0945007,88.71004486083984,237.42999267578125,2.735948085784912,-0.000272033124929294,0.00046018933062441647,0.013605231419205666,0.000501669361256063,0.00047216989332810044,0.0004983526305295527,4.712395668029785
38,2.134726974181831,16780970.3823037,88.71004486083984,237.42999267578125,2.7250113487243652,-0.0007407574448734522,0.0006597351166419685,-0.00047784324851818383,0.000554166326764971,0.0004863901122007519,0.0005070752813480794,4.712395668029785
39,2.140726974233985,16780970.6361267,88.71004486083984,237.42999267578125,2.713721513748169,4.05208847951144e-05,-5.7298970205010846e-05,0.01540729682892561,0.0004764958575833589,0.000491499959025532,0.0004892747383564711,4.712395668029785
40,2.146726974286139,16780970.9224218,88.71004486083984,237.42999267578125,2.7020792961120605,-0.00045829781447537243,-0.00013611996837425977,0.01462376955896616,0.0005161942099221051,0.0005492179770953953,0.00046832143561914563,4.712395668029785
41,2.152726974338293,16780971.1881114,88.71004486083984,237.42999267578125,2.690411329269409,0.0006931771640665829,9.762166882865131e-05,9.095252990722656,0.0005182253662496805,0.0005112082581035793,0.0004908696282655001,4.712395668029785
42,2.158726974390447,16780971.4789557,88.71004486083984,237.42999267578125,2.6798095703125,0.00019962771330028772,0.0002063317078864202,39.425636291503906,0.00048321436042897403,0.0005040066898800433,0.0004979615332558751,4.712395668029785
43,2.164726974442601,16780971.7729894,88.71004486083984,237.42999267578125,2.670163631439209,-0.00018646089301910251,-0.0005565400933846831,36.35953140258789,0.0004740345466416329,0.0005428635631687939,0.0005314239533618093,4.712395668029785
44,2.1707269744947553,16780972.0704588,88.71004486083984,237.42999267578125,2.6613993644714355,-0.0005255629657767713,6.590214616153389e-05,34.31010818481445,0.0004977711942046881,0.00045985745964571834,0.0004970047739334404,4.712395668029785
45,2.1767269745469093,16780972.3560301,88.71004486083984,237.42999267578125,2.6534509658813477,0.0008069336181506515,-0.0002754766901489347,32.46027374267578,0.00045458099339157343,0.0005092784995213151,0.000523633323609829,4.712395668029785
46,2.1827269745990634,16780972.6412183,88.71004486083984,237.42999267578125,2.646253824234009,-0.0006475478294305503,-0.00038993844646029174,30.689001083374023,0.000523726106621325,0.0004360260209068656,0.0005089725600555539,4.712395668029785
47,2.1887269746512175,16780972.9392757,88.71004486083984,237.42999267578125,2.6397507190704346,-0.0004168207524344325,4.201591218588874e-05,29.074745178222656,0.0004549389414023608,0.00048228391096927226,0.0005047593149356544,4.712395668029785
48,2.1947269747033715,16780973.2162241,88.71004486083984,237.42999267578125,2.6338863372802734,-0.0003185975656379014,0.0013094983296468854,27.565311431884766,0.0005165778566151857,0.00043642125092446804,0.0005070840124972165,4.712395668029785
49,2.2007269747555256,16780973.5139741,88.71004486083984,237.42999267578125,2.628610372543335,-0.0003795575175900012,-0.00015583961794618517,26.154857635498047,0.000484915217384696,0.00048616662388667464,0.00047039048513397574,4.712395668029785
50,2.2067269748076797,16780973.7940688,88.71004486083984,237.42999267578125,2.6238765716552734,0.0009213213925249875,-6.225095421541482e-05,24.859577178955078,0.0004910037969239056,0.000493582512717694,0.0004384600033517927,4.712395668029785
51,2.2127269748598337,16780974.1154109,88.71004486083984,237.42999267578125,2.619640827178955,0.00036085606552660465,0.0001929104037117213,23.649892807006836,0.0004888770054094493,0.00045231584226712584,0.0005099778645671904,4.712395668029785
52,2.218726974911988,16780974.4071929,88.71004486083984,237.42999267578125,2.615863084793091,-0.0002962783328257501,-2.3620752472197637e-05,22.530790328979492,0.0005199899896979332,0.0004780025046784431,0.0004938654019497335,4.712395668029785
53,2.224726974964142,16780974.7273355,88.71004486083984,237.42999267578125,2.6125054359436035,-0.000750418403185904,0.00041662476724013686,21.484861373901367,0.0005305701051838696,0.0005128849297761917,0.0005286190425977111,4.712395668029785
54,2.230726975016296,16780975.0154551,88.71004486083984,237.42999267578125,2.6095335483551025,0.000770860759075731,-0.0001833355927374214,20.524188995361328,0.0004987490829080343,0.00048731983406469226,0.0004617667000275105,4.712395668029785
55,2.23672697506845,16780975.3248429,88.71004486083984,237.42999267578125,2.606915235519409,-0.0004068603157065809,0.0005925526493228972,19.625118255615234,0.00045670088729821146,0.0005117699620313942,0.0004780764284078032,4.712395668029785
56,2.242726975120604,16780975.6134954,88.71004486083984,237.42999267578125,2.604620933532715,-0.0009229285642504692,-0.000515859923325479,18.815095901489258,0.0005069990293122828,0.0005354346358217299,0.000445014942670241,4.712395668029785
57,2.248726975172758,16780975.9142152,88.71004486083984,237.42999267578125,2.6026222705841064,0.0005542737198993564,-0.00034599678474478424,18.024988174438477,0.00053965556435287,0.00047499759239144623,0.00047939756768755615,4.712395668029785
58,2.254726975224912,16780976.1978592,88.71004486083984,237.42999267578125,2.6008946895599365,0.0001237782562384382,-0.0003678191569633782,17.33502769470215,0.0004915017634630203,0.0005401404341682792,0.0005263707716949284,4.712395668029785
59,2.2607269752770662,16780976.4978993,88.71004486083984,237.42999267578125,2.5994136333465576,-1.7857244529295713e-05,-0.0006589170661754906,16.660221099853516,0.0005435856874100864,0.0004669695335905999,0.0005048864986747503,4.712395668029785
60,2.2667269753292203,16780976.8093142,88.71004486083984,237.42999267578125,2.5981578826904297,0.0004983616527169943,0.00027716171462088823,16.06993865966797,0.0005076751695014536,0.0004618277307599783,0.0005183378234505653,4.712395668029785
61,2.2727269753813744,16780977.0969915,88.71004486083984,237.42999267578125,2.59710693359375,-0.00021891559299547225,0.0014735287986695766,15.494301795959473,0.0005083283176645637,0.0004975168267264962,0.0005264673382043839,4.712395668029785
62,2.2787269754335284,16780977.3962927,88.71004486083984,237.42999267578125,2.5962419509887695,-0.0004788078658748418,-0.0010602062102407217,14.97958755493164,0.0004986925050616264,0.0005165506736375391,0.0004806979850400239,4.712395668029785
63,2.2847269754856825,16780977.6729375,88.71004486083984,237.42999267578125,2.595546245574951,-0.0006903887260705233,0.0005335227469913661,14.505326271057129,0.0005296037415973842,0.0004945218679495156,0.0005702381604351103,4.712395668029785
64,2.2907269755378366,16780977.9805076,88.71004486083984,237.42999267578125,2.595003366470337,0.00019083301594946533,3.257923890487291e-05,14.060552597045898,0.0004951521405018866,0.0005029637832194567,0.00048374233301728964,4.712395668029785
65,2.2967269755899906,16780978.2573831,88.71004486083984,237.42999267578125,2.5945985317230225,-0.00010095701873069629,0.0003526188083924353,13.650146484375,0.0004987141001038253,0.0005295266164466739,0.0004937533522024751,4.712395668029785
66,2.3027269756421447,16780978.5562654,88.71004486083984,237.42999267578125,2.5943191051483154,0.00043588352855294943,0.0007352034444920719,13.285175323486328,0.0005457861116155982,0.0005416733911260962,0.0005713393329642713,4.712395668029785
67,2.3087269756942987,16780978.8383748,88.71004486083984,237.42999267578125,2.5941519737243652,0.0006259348010644317,-0.00019506360695231706,12.9304780960083,0.0004764923360198736,0.0005534839583560824,0.0005491377669386566,4.712395668029785
68,2.314726975746453,16780979.1355933,88.71004486083984,237.42999267578125,2.594085216522217,0.0003736177459359169,-0.00046522184857167304,12.604616165161133,0.0004527468408923596,0.0005008818116039038,0.0004953593597747386,4.712395668029785
69,2.320726975798607,16780979.4170569,88.71004486083984,237.42999267578125,2.594109058380127,-0.0003109116805717349,3.7480458559002727e-06,12.324307441711426,0.0005444177659228444,0.0005073260981589556,0.0005279003526084125,4.712395668029785
70,2.326726975850761,16780979.7079867,88.71004486083984,237.42999267578125,2.5942137241363525,-0.0005089539336040616,0.0002068372705252841,12.050432205200195,0.0005069855833426118,0.00048669936950318515,0.0004746902850456536,4.712395668029785
71,2.332726975902915,16780980.0018973,88.71004486083984,237.42999267578125,2.5943899154663086,-0.0011501149274408817,0.0002549791242927313,11.795882225036621,0.0005233042174950242,0.0004940306534990668,0.0005419390508905053,4.712395668029785
72,2.338726975955069,16780980.2945054,88.71004486083984,237.42999267578125,2.5946297645568848,-0.00030103587778285146,-0.0004010211559943855,11.586111068725586,0.000534709426574409,0.00045678054448217154,0.0005088007310405374,4.712395668029785
73,2.344726976007223,16780980.582012,88.71004486083984,237.42999267578125,2.594925880432129,0.00034657728974707425,0.00041242234874516726,11.365104675292969,0.0005182901513762772,0.0005187341012060642,0.0005242758197709918,4.712395668029785
74,2.350726976059377,16780980.8684548,88.71004486083984,237.42999267578125,2.595270872116089,-0.0002494889195077121,0.00015796032676007599,11.180795669555664,0.00048637643340043724,0.0005016413051635027,0.0005707006203010678,4.712395668029785
75,2.3567269761115313,16780981.1718955,88.71004486083984,237.42999267578125,2.595658779144287,0.00019514000450726599,0.00021318584913387895,10.995773315429688,0.0005145113682374358,0.0005320138297975063,0.0004978581564500928,4.712395668029785
76,2.3627269761636853,16780981.4504145,88.71004486083984,237.42999267578125,2.596083879470825,-0.0005891320179216564,-0.00017739961913321167,10.844903945922852,0.00047594564966857433,0.0004679233825299889,0.00048379055806435645,4.712395668029785
77,2.3687269762158394,16780981.7443756,88.71004486083984,237.42999267578125,2.596541166305542,0.0005033453926444054,-0.00016584708646405488,10.69507884979248,0.0005064057768322527,0.00047479194472543895,0.0004532949533313513,4.712395668029785
78,2.3747269762679935,16780982.0252421,88.71004486083984,237.42999267578125,2.5970253944396973,-0.0001583071716595441,0.00014732949784956872,10.570225715637207,0.0004177857481408864,0.000486619770526886,0.0004622856213245541,4.712395668029785
79,2.3807269763201475,16780982.321531,88.71004486083984,237.42999267578125,2.597532272338867,9.251431038137525e-05,0.00013369078806135803,10.435175895690918,0.000522741349413991,0.0005022038239985704,0.0004885424859821796,4.712395668029785
80,2.3867269763723016,16780982.6029859,88.71004486083984,237.42999267578125,2.5980584621429443,-0.00033123133471235633,0.00029085055575706065,10.34507942199707,0.00046036229468882084,0.0005416149506345391,0.0005787328700534999,4.712395668029785
81,2.3927269764244556,16780982.8950821,88.71004486083984,237.42999267578125,2.598599433898926,-0.0005827153800055385,-0.0003011171647813171,10.2251558303833,0.00047529549920000136,0.0005015627248212695,0.0005172973033040762,4.712395668029785
82,2.3987269764766097,16780983.1729045,88.71004486083984,237.42999267578125,2.5991528034210205,-0.0006599214393645525,0.00029626768082380295,10.149680137634277,0.0004622167907655239,0.0005383456591516733,0.0005424863775260746,4.712395668029785
83,2.4047269765287638,16780983.4841315,88.71004486083984,237.42999267578125,2.599714994430542,2.0219415091560222e-05,-0.0003905829507857561,10.055224418640137,0.0005241622566245496,0.0004559099907055497,0.0005311861750669777,4.712395668029785
84,2.410726976580918,16780983.7704296,88.71004486083984,237.42999267578125,2.6002838611602783,4.400108082336374e-06,-0.0006870395736768842,9.995012283325195,0.00045264646178111434,0.0005309298285283148,0.00048009114107117057,4.712395668029785
85,2.416726976633072,16780984.0710592,88.71004486083984,237.42999267578125,2.6008565425872803,0.00037977180909365416,-0.0005419290973804891,9.919852256774902,0.0005129745113663375,0.00048005880671553314,0.0004928321577608585,4.712395668029785
86,2.422726976685226,16780984.3461253,88.71004486083984,237.42999267578125,2.601431131362915,0.0003965396317653358,0.00028620834928005934,9.86504077911377,0.0005350139690563083,0.000538606895133853,0.0005697286687791348,4.712395668029785
87,2.42872697673738,16780984.6414416,88.71004486083984,237.42999267578125,2.6020054817199707,-0.00026174093363806605,0.00010220992407994345,9.800007820129395,0.0005245630745775998,0.0005171322263777256,0.0005384369869716465,4.712395668029785
88,2.434726976789534,16780984.9168814,88.71004486083984,237.42999267578125,2.6025784015655518,-0.00026503403205424547,0.000162479977007024,9.764118194580078,0.00044720666483044624,0.0005006839637644589,0.000456119334558025,4.712395668029785
89,2.440726976841688,16780985.2151764,88.71004486083984,237.42999267578125,2.6031477451324463,-0.0005106261814944446,-0.0005423189722932875,9.714912414550781,0.0005462777917273343,0.0004947510315105319,0.0005124699091538787,4.712395668029785
90,2.446726976893842,16780985.509403,88.71004486083984,237.42999267578125,2.603712797164917,0.0002892232732847333,0.0005293961730785668,9.689641952514648,0.0005055770161561668,0.0005116237443871796,0.0003976302978117019,4.712395668029785
91,2.4527269769459963,16780985.813238,88.71004486083984,237.42999267578125,2.604271411895752,-0.0009059832082130015,0.0002810087171383202,9.63531494140625,0.0004902626387774944,0.0004938030615448952,0.0005104693700559437,4.712395668029785
92,2.4587269769981503,16780986.0948389,88.71004486083984,237.42999267578125,2.604823589324951,-5.0142443797085434e-05,-0.0009799710242077708,9.625493049621582,0.0005203771288506687,0.0005294709117151797,0.0005254213465377688,4.712395668029785
93,2.4647269770503044,16780986.3689405,88.71004486083984,237.42999267578125,2.605367660522461,-0.0003117288579232991,0.0010409130482003093,9.590139389038086,0.00047707429621368647,0.0005660970346070826,0.0004972483147867024,4.712395668029785
94,2.4707269771024585,16780986.659291,88.71004486083984,237.42999267578125,2.605903148651123,-0.0009668428683653474,0.000609904935117811,9.568480491638184,0.00045581787708215415,0.00048497668467462063,0.0004985684063285589,4.712395668029785
95,2.4767269771546125,16780986.9597023,88.71004486083984,237.42999267578125,2.6064293384552,0.00013883635983802378,-0.0004955321783199906,9.5498628616333,0.0004917238838970661,0.00046114803990349174,0.0005157774430699646,4.712395668029785
96,2.4827269772067666,16780987.2580261,88.71004486083984,237.42999267578125,2.606945753097534,-0.0009652582812123001,-0.0006125036161392927,9.540535926818848,0.0005136638646945357,0.0005153277306817472,0.0005005965358577669,4.712395668029785
97,2.4887269772589207,16780987.5425313,88.71004486083984,237.42999267578125,2.6074516773223877,-0.00032765718060545623,7.925963291199878e-05,9.519773483276367,0.0005076059605926275,0.0005096157547086477,0.0005246695945970714,4.712395668029785
98,2.4947269773110747,16780987.8500571,88.71004486083984,237.42999267578125,2.6079466342926025,-0.0010591995669528842,0.0009620097698643804,9.504792213439941,0.000505930045619607,0.0005191224627196789,0.0005313876899890602,4.712395668029785
99,2.500726977363229,16780988.1367705,88.71004486083984,237.42999267578125,2.6084303855895996,-0.00017941273108590394,-0.0008085467852652073,9.49539566040039,0.00047677563270553946,0.0004952503368258476,0.0005406802520155907,4.712395668029785
100,2.506726977415383,16780988.4533947,88.71004486083984,237.42999267578125,2.608902931213379,-0.0008503629360347986,0.00037602399243041873,9.499747276306152,0.0004915686440654099,0.0005414822953753173,0.000524321396369487,4.712395668029785
101,2.512726977467537,16780988.7371308,88.71004486083984,237.42999267578125,2.609363555908203,-0.00039746530819684267,-0.00025972232106141746,9.484880447387695,0.0005203093169257045,0.0005140292341820896,0.0005215037381276488,4.712395668029785
102,2.518726977519691,16780989.030792,88.71004486083984,237.42999267578125,2.6098129749298096,-4.572079433273757e-06,0.00023091709590516984,9.484506607055664,0.0004726422193925828,0.0005066170124337077,0.00048046073061414063,4.712395668029785
103,2.524726977571845,16780989.3077792,88.71004486083984,237.42999267578125,2.610250234603882,-0.00029364810325205326,0.00028324805316515267,9.484848976135254,0.0005182419554330409,0.0005079676629975438,0.00048581729060970247,4.712395668029785
104,2.530726977623999,16780989.6043982,88.71004486083984,237.42999267578125,2.61067533493042,0.00103566434700042,-0.00028474268037825823,9.470675468444824,0.0005025456193834543,0.0005001765093766153,0.000509479665197432,4.712395668029785
105,2.536726977676153,16780989.8964296,88.71004486083984,237.42999267578125,2.611088752746582,-8.096076635411009e-05,-0.00020593652152456343,9.484495162963867,0.0005132099031470716,0.0004400748002808541,0.0005226629436947405,4.712395668029785
106,2.5427269777283072,16780990.1776984,88.71004486083984,237.42999267578125,2.61149001121521,-0.0007439678302034736,9.577017044648528e-05,9.475069999694824,0.0005153651582077146,0.0005097356042824686,0.0005244792555458844,4.712395668029785
107,2.5487269777804613,16780990.4721199,88.71004486083984,237.42999267578125,2.611879825592041,-6.476986891357228e-05,-0.00022133102174848318,9.48481559753418,0.0004865969531238079,0.000484281248645857,0.0004626596055459231,4.712395668029785
108,2.5547269778326154,16780990.7533913,88.71004486083984,237.42999267578125,2.612257719039917,1.7582349755684845e-05,-0.0008483697893097997,9.475098609924316,0.0005355357425287366,0.0005389010766521096,0.0004313016834203154,4.712395668029785
109,2.5607269778847694,16780991.058859,88.71004486083984,237.42999267578125,2.612623929977417,0.0004038167535327375,-0.0002524992742110044,9.495631217956543,0.0005211746320128441,0.0005387011915445328,0.0004670133057516068,4.712395668029785
110,2.5667269779369235,16780991.3420603,88.71004486083984,237.42999267578125,2.61297869682312,0.0004359639133326709,0.00017834099708124995,9.495829582214355,0.0005053756758570671,0.00048603329923935235,0.0004933712771162391,4.712395668029785
111,2.5727269779890776,16780991.6379192,88.71004486083984,237.42999267578125,2.6133220195770264,0.0005161042208783329,-0.0002844552509486675,9.48519515991211,0.0004941883380524814,0.0005035066860727966,0.0005306837847456336,4.712395668029785
112,2.5787269780412316,16780991.9364743,88.71004486083984,237.42999267578125,2.613654375076294,-0.00028757777181454003,0.0006038681021891534,9.504773139953613,0.0005198192084208131,0.0005183189641684294,0.0005384471733123064,4.712395668029785
113,2.5847269780933857,16780992.2255733,88.71004486083984,237.42999267578125,2.613975763320923,-8.33635640447028e-05,-0.0002461360127199441,9.509562492370605,0.00048787554260343313,0.0005349369021132588,0.0004981105448678136,4.712395668029785
114,2.5907269781455398,16780992.5081941,88.71004486083984,237.42999267578125,2.614286184310913,-0.0001747917995089665,0.00017128778563346714,9.499907493591309,0.0004745303886011243,0.0004528742574620992,0.0005403209943324327,4.712395668029785
115,2.596726978197694,16780992.8047631,88.71004486083984,237.42999267578125,2.614586114883423,-0.00043679485679604113,0.000239964880165644,9.524466514587402,0.000498349720146507,0.0005055345827713609,0.000494041305501014,4.712395668029785
116,2.602726978249848,16780993.0840411,88.71004486083984,237.42999267578125,2.6148760318756104,-6.355343793984503e-05,-0.0008544708834961057,9.52452564239502,0.0005180779262445867,0.0004901592619717121,0.0004627635353244841,4.712395668029785
117,2.608726978302002,16780993.3836591,88.71004486083984,237.42999267578125,2.6151556968688965,0.0001410069380654022,-0.000618194870185107,9.524754524230957,0.00047628668835386634,0.0005398172652348876,0.00048622049507685006,4.712395668029785
118,2.614726978354156,16780993.6652512,88.71004486083984,237.42999267578125,2.6154251098632812,8.059138053795323e-05,0.0005703811766579747,9.529940605163574,0.0005085815209895372,0.00047856380115263164,0.0004816155123990029,4.712395668029785
119,2.62072697840631,16780993.9619159,88.71004486083984,237.42999267578125,2.61568546295166,0.0005424237460829318,0.00039411618490703404,9.555174827575684,0.0004900747444480658,0.000538018939550966,0.0005394305335357785,4.712395668029785
120,2.626726978458464,16780994.2383876,88.71004486083984,237.42999267578125,2.615935802459717,-0.0001506792032159865,-1.66736153914826e-05,9.540262222290039,0.0004359539598226547,0.0005233886768110096,0.000561691471375525,4.712395668029785
121,2.632726978510618,16780994.5366952,88.71004486083984,237.42999267578125,2.616177558898926,-2.6174091544817202e-05,0.0005800988874398172,9.565086364746094,0.00047289603389799595,0.0005427173455245793,0.0004633273056242615,4.712395668029785
122,2.6387269785627723,16780994.8188469,88.71004486083984,237.42999267578125,2.616410255432129,-7.417039159918204e-05,0.0001832675188779831,9.55423641204834,0.0004290812648832798,0.00045540957944467664,0.0004667441826313734,4.712395668029785
123,2.6447269786149263,16780995.1118364,88.71004486083984,237.42999267578125,2.6166343688964844,0.00023072422482073307,0.00018415115482639521,9.5802583694458,0.0005164187750779092,0.0005009116139262915,0.0004754397668875754,4.712395668029785
124,2.6507269786670804,16780995.3921949,88.71004486083984,237.42999267578125,2.616849899291992,-0.00031112393480725586,0.0005273736314848065,9.565521240234375,0.0005207248032093048,0.0004995408235117793,0.00047289676149375737,4.712395668029785
125,2.6567269787192345,16780995.6840619,88.71004486083984,237.42999267578125,2.6170573234558105,-0.00013199793465901166,-0.00016710360068827868,9.590699195861816,0.0005034981295466423,0.000513932725880295,0.0004870416596531868,4.712395668029785
126,2.6627269787713885,16780995.9944399,88.71004486083984,237.42999267578125,2.6172573566436768,0.0003499343292787671,0.0006869470817036927,9.600059509277344,0.000490809150505811,0.00047062334488146007,0.0004807919031009078,4.712395668029785
127,2.6687269788235426,16780996.2826716,88.71004486083984,237.42999267578125,2.6174492835998535,0.0007447541574947536,0.0005132922669872642,9.584053993225098,0.0005268653039820492,0.00045621913159266114,0.0005284473882056773,4.712395668029785
128,2.6747269788756967,16780996.57548,88.71004486083984,237.42999267578125,2.617633581161499,0.0011748189572244883,-0.0007936545880511403,9.60100269317627,0.0004279312561266124,0.0005270530236884952,0.0004815894935745746,4.712395668029785
129,2.6807269789278507,16780996.8646085,88.71004486083984,237.42999267578125,2.6178112030029297,0.00045679049799218774,-0.00023022436653263867,9.62502384185791,0.00047478152555413544,0.0005256137810647488,0.0004871039418503642,4.712395668029785
130,2.686726978980005,16780997.1650656,88.71004486083984,237.42999267578125,2.617981433868408,-0.0009531070245429873,-0.0005606272607110441,9.605237007141113,0.0005167254130356014,0.0004851706908084452,0.0004801140748895705,4.712395668029785
131,2.692726979032159,16780997.4512414,88.71004486083984,237.42999267578125,2.61814546585083,-0.0002725598169490695,0.0003942392359022051,9.629314422607422,0.0005123151931911707,0.0005329401465132833,0.0004720531578641385,4.712395668029785
132,2.698726979084313,16780997.7523906,88.71004486083984,237.42999267578125,2.618302583694458,-0.0002897187659982592,0.00023384057567454875,9.625051498413086,0.0004810526443179697,0.0005258471355773509,0.0005057466914877295,4.712395668029785
133,2.704726979136467,16780998.0359523,88.71004486083984,237.42999267578125,2.61845326423645,-0.00025724395527504385,-7.704975723754615e-05,9.634015083312988,0.0005060777184553444,0.0005108648329041898,0.0005131313810124993,4.712395668029785
134,2.710726979188621,16780998.346828,88.71004486083984,237.42999267578125,2.618598222732544,-0.00037542878999374807,-0.0004354375705588609,9.64509105682373,0.0005395846092142165,0.0005220278399065137,0.000490134465508163,4.712395668029785
135,2.716726979240775,16780998.6213679,88.71004486083984,237.42999267578125,2.6187374591827393,0.00021365904831327498,-0.00011800046195276082,9.649950981140137,0.0004861049528699368,0.0005209639202803373,0.0004553960170596838,4.712395668029785
136,2.722726979292929,16780998.9182942,88.71004486083984,237.42999267578125,2.618870735168457,0.0008614755934104323,0.0007351464009843767,9.649974822998047,0.00043932185508310795,0.00045577072887681425,0.0005134742241352797,4.712395668029785
137,2.7287269793450832,16780999.1949803,88.71004486083984,237.42999267578125,2.6189987659454346,-0.000710981257725507,-0.0004294134851079434,9.659857749938965,0.00046853150706738234,0.00044470358989201486,0.0005368334241211414,4.712395668029785
138,2.7347269793972373,16780999.4852666,88.71004486083984,237.42999267578125,2.6191213130950928,-0.00010024030780186877,1.8426627548251417e-06,9.660560607910156,0.0004716370312962681,0.00044212955981492996,0.0005210477393120527,4.712395668029785
139,2.7407269794493914,16780999.7654355,88.71004486083984,237.42999267578125,2.61923885345459,0.00022033479763194919,0.0005592136294580996,9.669905662536621,0.0004910512361675501,0.0004485084500629455,0.0004991733585484326,4.712395668029785
140,2.7467269795015454,16781000.0536614,88.71004486083984,237.42999267578125,2.619351863861084,0.0006268553552217782,-6.886325718369335e-05,9.680353164672852,0.0004907592665404081,0.0005407573189586401,0.0004656539822462946,4.712395668029785
141,2.7527269795536995,16781000.337844,88.71004486083984,237.42999267578125,2.619459867477417,0.0001219101541209966,0.00019242781854700297,9.675983428955078,0.0005479371757246554,0.0004905693349428475,0.0005232049152255058,4.712395668029785
142,2.7587269796058536,16781000.6504694,88.71004486083984,237.42999267578125,2.619563341140747,-0.000468659185571596,0.00026673325919546187,9.684755325317383,0.0005297282477840781,0.0004862494533881545,0.0005330580752342939,4.712395668029785
143,2.7647269796580076,16781000.9184286,88.71004486083984,237.42999267578125,2.6196625232696533,-0.00026705762138590217,6.0665133787551895e-05,9.68997859954834,0.00047667030594311655,0.0005029049934819341,0.0005164243630133569,4.712395668029785
144,2.7707269797101617,16781001.2010996,88.71004486083984,237.42999267578125,2.619757652282715,1.4776699572394136e-05,-0.000315734971081838,9.70016860961914,0.0005167854833416641,0.0005502805579453707,0.0004845125658903271,4.712395668029785
145,2.7767269797623158,16781001.4781157,88.71004486083984,237.42999267578125,2.6198484897613525,0.00017020388622768223,-0.00046883156755939126,9.689688682556152,0.00045592139940708876,0.0005503237480297685,0.0005320589407347143,4.712395668029785
146,2.78272697981447,16781001.7786995,88.71004486083984,237.42999267578125,2.6199355125427246,-0.0005805870750918984,0.00013975791807752103,9.705434799194336,0.000459185685031116,0.0005145599716342986,0.00047284274478442967,4.712395668029785
147,2.788726979866624,16781002.0611401,88.71004486083984,237.42999267578125,2.6200191974639893,3.661579467006959e-05,0.0002121331635862589,9.710010528564453,0.0004584805283229798,0.0005451807519420981,0.00048166263150051236,4.712395668029785
148,2.794726979918778,16781002.3569507,88.71004486083984,237.42999267578125,2.620098829269409,-0.00027540995506569743,-0.00021545930940192193,9.704506874084473,0.0004959107027389109,0.000476638728287071,0.0004999962402507663,4.712395668029785
149,2.800726979970932,16781002.6509529,88.71004486083984,237.42999267578125,2.620175361633301,-0.0004095494805369526,-0.00016073076403699815,9.719056129455566,0.00047921165241859853,0.0005600962322205305,0.0005061302217654884,4.712395668029785
150,2.806726980023086,16781002.9388987,88.71004486083984,237.42999267578125,2.620248317718506,0.0004932510782964528,0.0004308325005695224,9.710648536682129,0.0005057165399193764,0.00046178660704754293,0.0005182271706871688,4.712395668029785
151,2.81272698007524,16781003.2424446,88.71004486083984,237.42999267578125,2.620318651199341,-0.00027068727649748325,0.00033532167435623705,9.734504699707031,0.00045559959835372865,0.00046316973748616874,0.0005597576964646578,4.712395668029785
152,2.818726980127394,16781003.5217444,88.71004486083984,237.42999267578125,2.6203854084014893,0.00048573341337032616,0.000955447496380657,9.720305442810059,0.0005204406334087253,0.000487316632643342,0.0004991450696252286,4.712395668029785
153,2.8247269801795483,16781003.8145027,88.71004486083984,237.42999267578125,2.6204490661621094,0.0007212308119051158,0.00020722219778690487,9.719863891601562,0.00041224085725843906,0.0005255052819848061,0.00047031734720803797,4.712395668029785
154,2.8307269802317023,16781004.1033426,88.71004486083984,237.42999267578125,2.6205105781555176,0.0008141346625052392,-4.92037070216611e-05,9.744750022888184,0.0005034123896621168,0.00045450261677615345,0.0004844800860155374,4.712395668029785
155,2.8367269802838564,16781004.4038613,88.71004486083984,237.42999267578125,2.6205689907073975,0.00011687308870023116,-1.3764544746663887e-05,9.729570388793945,0.0005216427962295711,0.0005079058464616537,0.0005049703177064657,4.712395668029785
156,2.8427269803360105,16781004.6819249,88.71004486083984,237.42999267578125,2.6206250190734863,0.00048050543409772217,-0.00017017810023389757,9.739978790283203,0.0004974904586561024,0.0004994139890186489,0.0004822305927518755,4.712395668029785
157,2.8487269803881645,16781004.9883422,88.71004486083984,237.42999267578125,2.620678424835205,-0.00047936616465449333,0.00021080973965581506,9.734395980834961,0.0004929372225888073,0.0004834864812437445,0.00048571446677669883,4.712395668029785
158,2.8547269804403186,16781005.2656484,88.71004486083984,237.42999267578125,2.620729684829712,-0.00017399438365828246,-0.0005883160629309714,9.755575180053711,0.0004595042555592954,0.0005132026271894574,0.00048426358262076974,4.712395668029785
159,2.8607269804924726,16781005.5547507,88.71004486083984,237.42999267578125,2.6207785606384277,-0.0005337337497621775,0.00017144408775493503,9.740142822265625,0.0005050012259744108,0.0005004024715162814,0.000499328481964767,4.712395668029785
160,2.8667269805446267,16781005.8314263,88.71004486083984,237.42999267578125,2.6208250522613525,0.0005422549438662827,-0.0005882798577658832,9.75490951538086,0.0005073193460702896,0.0004813231935258955,0.0004470784042496234,4.712395668029785
161,2.8727269805967808,16781006.1272461,88.71004486083984,237.42999267578125,2.6208696365356445,0.0005895878421142697,0.0003079853777308017,9.745259284973145,0.0005886027356609702,0.0005182769382372499,0.00045084842713549733,4.712395668029785
162,2.878726980648935,16781006.3999758,88.71004486083984,237.42999267578125,2.6209123134613037,-0.001257244381122291,-4.422044366947375e-05,9.76461124420166,0.0005118839326314628,0.0004958365461789072,0.00047812817501835525,4.712395668029785
163,2.884726980701089,16781006.6979634,88.71004486083984,237.42999267578125,2.62095308303833,-0.0006092521362006664,-0.0007640867843292654,9.745877265930176,0.0004670943017117679,0.0004664812586270273,0.000548515934497118,4.712395668029785
164,2.890726980753243,16781006.9851213,88.71004486083984,237.42999267578125,2.6209917068481445,-7.871173875173554e-05,-0.0007311373483389616,9.759810447692871,0.0005185668705962598,0.0005099092377349734,0.0005144562455825508,4.712395668029785
165,2.896726980805397,16781007.2897175,88.71004486083984,237.42999267578125,2.6210289001464844,-0.0003695438790600747,-0.00019707949832081795,9.769509315490723,0.00048244971549138427,0.0005377548513934016,0.0005025702994316816,4.712395668029785
166,2.902726980857551,16781007.5789482,88.71004486083984,237.42999267578125,2.6210644245147705,-0.00027441317797638476,0.0008309316472150385,9.760172843933105,0.0004740603908430785,0.0005082344287075102,0.0004944330430589616,4.712395668029785
167,2.908726980909705,16781007.8706336,88.71004486083984,237.42999267578125,2.621098279953003,-0.0009370396728627384,0.0006120653124526143,9.764004707336426,0.0005014044581912458,0.0005082027055323124,0.0004907504771836102,4.712395668029785
168,2.9147269809618592,16781008.1725755,88.71004486083984,237.42999267578125,2.6211307048797607,0.00018870335770770907,-0.0003541933256201446,9.770119667053223,0.0005273113492876291,0.0004819276509806514,0.0004824250645469874,4.712395668029785
169,2.9207269810140133,16781008.4581693,88.71004486083984,237.42999267578125,2.621161460876465,0.0004947510897181928,-0.0002813258324749768,9.765352249145508,0.00046806782484054565,0.0004893774166703224,0.0005063883727416396,4.712395668029785
170,2.9267269810661674,16781008.7611694,88.71004486083984,237.42999267578125,2.6211910247802734,0.001433827797882259,0.0004389820387586951,9.780335426330566,0.00046723877312615514,0.000502371636684984,0.0004947144770994782,4.712395668029785
171,2.9327269811183214,16781009.0470777,88.71004486083984,237.42999267578125,2.6212191581726074,0.0008918813546188176,2.449104249535594e-05,9.764060020446777,0.0004746084741782397,0.0004904345842078328,0.0004736364644486457,4.712395668029785
172,2.9387269811704755,16781009.3610102,88.71004486083984,237.42999267578125,2.621245861053467,0.0011011630995199084,0.0009788483148440719,9.774237632751465,0.0004895212478004396,0.000520599540323019,0.0005009109736420214,4.712395668029785
173,2.9447269812226295,16781009.6534714,88.71004486083984,237.42999267578125,2.6212713718414307,-3.642549199867062e-05,0.0007914919406175613,9.76508617401123,0.0005215504788793623,0.0005274468567222357,0.0005558240227401257,4.712395668029785
174,2.9507269812747836,16781009.9625978,88.71004486083984,237.42999267578125,2.621295690536499,0.0009982732590287924,0.00019017723388969898,9.790204048156738,0.0004684596788138151,0.0005116491811349988,0.0005078078829683363,4.712395668029785
175,2.9567269813269377,16781010.2540727,88.71004486083984,237.42999267578125,2.62131929397583,-0.0005997135303914547,-0.0001406193623552099,9.785615921020508,0.0004902105429209769,0.0005055139190517366,0.0005140808643773198,4.712395668029785
176,2.9627269813790917,16781010.584173,88.71004486083984,237.42999267578125,2.6213414669036865,-0.00035603600554168224,-0.0007018432952463627,9.769705772399902,0.0004636907542590052,0.0005229461239650846,0.0005015592323616147,4.712395668029785
177,2.968726981431246,16781010.8741102,88.71004486083984,237.42999267578125,2.6213624477386475,0.0004323099856264889,0.00040443215402774513,9.780990600585938,0.0005108386394567788,0.0004973066388629377,0.0004804581985808909,4.712395668029785
178,2.9747269814834,16781011.1675179,88.71004486083984,237.42999267578125,2.62138295173645,-0.0009406971512362361,-0.00016767033957876265,9.79367446899414,0.0005209671217016876,0.0004653597716242075,0.0005105277523398399,4.712395668029785
179,2.980726981535554,16781011.4580443,88.71004486083984,237.42999267578125,2.6214022636413574,0.00027441722340881824,-0.00042603284236975014,9.774882316589355,0.0005445515853352845,0.0005037020309828222,0.00052726233843714,4.712395668029785
180,2.986726981587708,16781011.7668851,88.71004486083984,237.42999267578125,2.6214206218719482,0.00018677818297874182,0.0005151839577592909,9.784582138061523,0.0005261304904706776,0.0005153131787665188,0.0004952786839567125,4.712395668029785
181,2.992726981639862,16781012.0707119,88.71004486083984,237.42999267578125,2.6214380264282227,-0.0004982749815098941,0.00011658646690193564,9.779661178588867,0.0005491820047609508,0.00046776828821748495,0.0005406831041909754,4.712395668029785
182,2.998726981692016,16781012.3645515,88.71004486083984,237.42999267578125,2.6214547157287598,-0.0005122784059494734,0.0004258294648025185,9.79529094696045,0.0004622860869858414,0.0005222877371124923,0.0004816032014787197,4.712395668029785
183,3.00472698174417,16781012.673248,88.71004486083984,237.42999267578125,2.6214709281921387,-0.001059564296156168,-0.00016328104538843036,9.794933319091797,0.0004982709651812911,0.000499397108796984,0.0005184141919016838,4.712395668029785
184,3.0107269817963243,16781012.9579992,88.71004486083984,237.42999267578125,2.621485948562622,-0.00039524922613054514,-3.836644464172423e-05,9.775778770446777,0.0005045646103098989,0.0005013953777961433,0.0005319082993082702,4.712395668029785
185,3.0167269818484783,16781013.2603563,88.71004486083984,237.42999267578125,2.6215004920959473,-0.000134317233460024,-8.260407048510388e-05,9.804784774780273,0.0004858403408434242,0.00046190223656594753,0.0004782765172421932,4.712395668029785
186,3.0227269819006324,16781013.5529588,88.71004486083984,237.42999267578125,2.621514320373535,-0.0002703550271689892,0.0007920583011582494,9.780028343200684,0.0005130692152306437,0.0005241420585662127,0.0004933387972414494,4.712395668029785
187,3.0287269819527864,16781013.8501888,88.71004486083984,237.42999267578125,2.6215274333953857,-0.00014521893172059208,2.3017591956886463e-05,9.795587539672852,0.0004623268614523113,0.000451635685749352,0.0004734538961201906,4.712395668029785
188,3.0347269820049405,16781014.1734878,88.71004486083984,237.42999267578125,2.621539831161499,-6.784247034374857e-06,-0.00048408060683868825,9.790266036987305,0.0005266157095320523,0.0005512955831363797,0.0004884618101641536,4.712395668029785
189,3.0407269820570946,16781014.5088845,88.71004486083984,237.42999267578125,2.621551990509033,-0.0002558233099989593,-0.00023801068891771138,9.803975105285645,0.0005410974845290184,0.000435420690337196,0.00048233679262921214,4.712395668029785
190,3.0467269821092486,16781014.8883571,88.71004486083984,237.42999267578125,2.62156343460083,-0.0003203315136488527,0.00027875666273757815,9.78487491607666,0.0004954879987053573,0.0004946063854731619,0.0004838760069105774,4.712395668029785
191,3.0527269821614027,16781015.1956278,88.71004486083984,237.42999267578125,2.6215744018554688,0.00017466300050728023,-5.282818165142089e-05,9.800432205200195,0.0005345445824787021,0.0004796055727638304,0.0004986084531992674,4.712395668029785
192,3.0587269822135568,16781015.5084643,88.71004486083984,237.42999267578125,2.621584415435791,-0.00035265274345874786,-6.61891681374982e-05,9.785679817199707,0.0005630831583403051,0.000545672548469156,0.0005547072505578399,4.712395668029785
193,3.064726982265711,16781015.8113951,88.71004486083984,237.42999267578125,2.6215944290161133,0.000445681216660887,-0.0003206136170774698,9.809892654418945,0.000511014077346772,0.0005143931484781206,0.0004886072129011154,4.712395668029785
194,3.070726982317865,16781016.1100274,88.71004486083984,237.42999267578125,2.6216039657592773,-0.00048030700418166816,-0.00024858073447830975,9.789360046386719,0.0005735116428695619,0.000540505803655833,0.0005415611085481942,4.712395668029785
195,3.076726982370019,16781016.4069367,88.71004486083984,237.42999267578125,2.621612787246704,0.0013230404583737254,-0.0010456262389197946,9.799254417419434,0.0004866506205871701,0.0005036420770920813,0.0004880927735939622,4.712395668029785
196,3.082726982422173,16781016.6873675,88.71004486083984,237.42999267578125,2.621612787246704,-3.5090877645416185e-05,-9.268028225051239e-05,9.560224533081055,0.0005023271660320461,0.0005320323398336768,0.0005024581332691014,4.712395668029785
197,3.088726982474327,16781016.9909919,88.71004486083984,237.42999267578125,2.6216137409210205,0.0007796428399160504,0.00047367485240101814,9.835125923156738,0.000495204352773726,0.00047889165580272675,0.0005082871066406369,4.712395668029785
198,3.094726982526481,16781017.2793276,88.71004486083984,237.42999267578125,2.6216156482696533,0.00013151417078915983,0.0005108056357130408,9.835352897644043,0.0005221945466473699,0.0004853338177781552,0.00046473153633996844,4.712395668029785
199,3.100726982578635,16781017.5904361,88.71004486083984,237.42999267578125,2.621617317199707,-0.00019940128549933434,-0.0007429772522300482,9.810673713684082,0.00046957810991443694,0.0004699419951066375,0.00045006797881796956,4.712395668029785
200,3.1067269826307893,16781017.8831027,88.71004486083984,237.42999267578125,2.621619462966919,-0.00026114273350685835,0.00019595406774897128,9.820388793945312,0.0004855197621509433,0.0005102400900796056,0.00046525447396561503,4.712395668029785
201,3.1127269826829433,16781018.1964848,88.71004486083984,237.42999267578125,2.62162184715271,0.0004756168054882437,-0.0008966264431364834,9.815139770507812,0.0005295042647048831,0.0005354414461180568,0.0005125884199514985,4.712395668029785
202,3.1187269827350974,16781018.4882099,88.71004486083984,237.42999267578125,2.621624708175659,-0.0003192528965882957,0.00012820922711398453,9.825305938720703,0.0005031627370044589,0.0005037107039242983,0.0004983097896911204,4.712395668029785
203,3.1247269827872515,16781018.7888684,88.71004486083984,237.42999267578125,2.6216278076171875,-0.00033594309934414923,0.00034742167918011546,9.81397533416748,0.0005330382846295834,0.0005016765207983553,0.0005119030247442424,4.712395668029785
204,3.1307269828394055,16781019.0836646,88.71004486083984,237.42999267578125,2.621630907058716,-0.0002735873276833445,-0.0004377734730951488,9.809871673583984,0.0005020062089897692,0.0005524377920664847,0.0005183690809644759,4.712395668029785
205,3.1367269828915596,16781019.3675015,88.71004486083984,237.42999267578125,2.6216342449188232,0.00037687044823542237,-0.0009026167681440711,9.814438819885254,0.00048098567640408874,0.00045535070239566267,0.0005048452876508236,4.712395668029785
206,3.1427269829437137,16781019.6586556,88.71004486083984,237.42999267578125,2.6216375827789307,-7.55792498239316e-05,0.0004958738572895527,9.814847946166992,0.00048141993465833366,0.0004885884118266404,0.0005204256740398705,4.712395668029785
207,3.1487269829958677,16781019.9473296,88.71004486083984,237.42999267578125,2.621640920639038,0.0003141855704598129,-5.60968583158683e-05,9.810941696166992,0.0005116458632983267,0.00048506807070225477,0.00047618572716601193,4.712395668029785
208,3.154726983048022,16781020.2517323,88.71004486083984,237.42999267578125,2.6216444969177246,0.00013294612290337682,0.0002530086203478277,9.814403533935547,0.0004927876289002597,0.0004879496991634369,0.0004881222848780453,4.712395668029785
209,3.160726983100176,16781020.5379361,88.71004486083984,237.42999267578125,2.621647834777832,0.0006049212533980608,0.001192799536511302,9.804734230041504,0.00046454338007606566,0.0004947995766997337,0.0004787636280525476,4.712395668029785
210,3.16672698315233,16781020.8299105,88.71004486083984,237.42999267578125,2.6216516494750977,2.5396077035111375e-05,-1.477914884162601e-05,9.814979553222656,0.0005343759548850358,0.0005448997253552079,0.0005065986188128591,4.712395668029785
211,3.172726983204484,16781021.115296,88.71004486083984,237.42999267578125,2.621655225753784,0.0008596833795309067,0.00012056852574460208,9.810469627380371,0.00048784411046653986,0.0005217567668296397,0.00046776962699368596,4.712395668029785
212,3.178726983256638,16781021.4192866,88.71004486083984,237.42999267578125,2.6216588020324707,-0.0003115014114882797,0.0004115935880690813,9.814645767211914,0.0004888519761152565,0.0005343282246030867,0.0005253597046248615,4.712395668029785
213,3.184726983308792,16781021.7111744,88.71004486083984,237.42999267578125,2.6216626167297363,0.0003867285849992186,-0.00026189410709775984,9.805277824401855,0.0004714160459116101,0.0004939625505357981,0.000482651696074754,4.712395668029785
214,3.190726983360946,16781022.0145121,88.71004486083984,237.42999267578125,2.621666193008423,-0.000541382934898138,-0.0004596739890985191,9.810285568237305,0.0005013909540139139,0.000526919262483716,0.0004841944028157741,4.712395668029785
215,3.1967269834131002,16781022.2905659,88.71004486083984,237.42999267578125,2.6216697692871094,8.68478946358664e-06,-0.0010289085330441594,9.815098762512207,0.00048778520431369543,0.00045680353650823236,0.0005156818078830838,4.712395668029785
216,3.2027269834652543,16781022.5943334,88.71004486083984,237.42999267578125,2.621673583984375,-1.0918171028606594e-05,0.000910941103938967,9.806106567382812,0.0005229213857091963,0.0004707191837951541,0.00047572681796737015,4.712395668029785
217,3.2087269835174084,16781022.8701273,88.71004486083984,237.42999267578125,2.6216771602630615,0.0009369124309159815,0.00038189147016964853,9.80997371673584,0.0005102957948110998,0.0004997123614884913,0.00050908955745399,4.712395668029785
218,3.2147269835695624,16781023.1692417,88.71004486083984,237.42999267578125,2.621680498123169,-0.0003770902403630316,0.0004120488010812551,9.805502891540527,0.0004418191674631089,0.0005043240962550044,0.0004866008530370891,4.712395668029785
219,3.2207269836217165,16781023.4506431,88.71004486083984,237.42999267578125,2.6216843128204346,0.0002627454523462802,0.000275411264738068,9.815244674682617,0.0004954218748025596,0.0005446356371976435,0.0005447820294648409,4.712395668029785
220,3.2267269836738706,16781023.7548133,88.71004486083984,237.42999267578125,2.621687650680542,0.00034066170337609947,0.00021346491121221334,9.8051176071167,0.0005328494589775801,0.00044901203364133835,0.0005652725230902433,4.712395668029785
221,3.2327269837260246,16781024.050075,88.71004486083984,237.42999267578125,2.6216909885406494,-0.0004611543263308704,-0.00038108217995613813,9.810401916503906,0.0005044107674621046,0.0005409496952779591,0.0004883899819105864,4.712395668029785
222,3.2387269837781787,16781024.3389569,88.71004486083984,237.42999267578125,2.621694326400757,-0.0007950607687234879,0.00022959793568588793,9.805055618286133,0.0005004861741326749,0.0004814629501197487,0.0005130815552547574,4.712395668029785
223,3.2447269838303328,16781024.6347062,88.71004486083984,237.42999267578125,2.621697425842285,-5.779661023552762e-06,0.0005059693357907236,9.804712295532227,0.0004943173844367266,0.0004755825793836266,0.0005306194070726633,4.712395668029785
224,3.250726983882487,16781024.9211923,88.71004486083984,237.42999267578125,2.6217007637023926,0.0001345142227364704,0.0005640119197778404,9.819421768188477,0.0004938723286613822,0.0005153262754902244,0.0005209134542383254,4.712395668029785
225,3.256726983934641,16781025.2122455,88.71004486083984,237.42999267578125,2.621703624725342,-0.0005747299292124808,-0.000985919265076518,9.800071716308594,0.0004823132767342031,0.0005100451526232064,0.00043278117664158344,4.712395668029785
226,3.262726983986795,16781025.4946205,88.71004486083984,237.42999267578125,2.62170672416687,7.967994861246552e-06,0.0007414313731715083,9.809280395507812,0.0004965584957972169,0.0004836254520341754,0.0005011858884245157,4.712395668029785
227,3.268726984038949,16781025.8077948,88.71004486083984,237.42999267578125,2.6217095851898193,0.0013907230459153652,0.0005338133778423071,9.799996376037598,0.0004829109238926321,0.0005767723778262734,0.0004999974626116455,4.712395668029785
228,3.274726984091103,16781026.0894003,88.71004486083984,237.42999267578125,2.6217126846313477,-0.00030670748674310744,0.0003444708709139377,9.820493698120117,0.0005240270402282476,0.00044135042116977274,0.0004984949482604861,4.712395668029785
229,3.280726984143257,16781026.3912714,88.71004486083984,237.42999267578125,2.6217153072357178,-0.000980456592515111,0.0005728647811338305,9.798861503601074,0.0005476149963214993,0.0005279072211124003,0.0004662593128159642,4.712395668029785
230,3.286726984195411,16781026.6706926,88.71004486083984,237.42999267578125,2.621718168258667,0.0001749875082168728,0.00021891943470109254,9.81447696685791,0.00046495755668729544,0.000501768256071955,0.0005573243834078312,4.712395668029785
231,3.2927269842475653,16781026.9708495,88.71004486083984,237.42999267578125,2.621720552444458,-0.0003136501763947308,-0.00039513056981377304,9.795339584350586,0.0005088732577860355,0.0005353702581487596,0.000493260973598808,4.712395668029785
232,3.2987269842997193,16781027.2626889,88.71004486083984,237.42999267578125,2.621723175048828,3.124601425952278e-05,0.0005362966912798584,9.819853782653809,0.0004730961809400469,0.0005046268925070763,0.0005418732180260122,4.712395668029785
233,3.3047269843518734,16781027.5749426,88.71004486083984,237.42999267578125,2.6217257976531982,0.000632992188911885,-0.00021507639030460268,9.805578231811523,0.0005292551941238344,0.0004505091637838632,0.00048640777822583914,4.712395668029785
234,3.3107269844040275,16781027.8519761,88.71004486083984,237.42999267578125,2.6217281818389893,-0.00016425074136350304,0.0001323359610978514,9.804780960083008,0.0005092834471724927,0.0005131087964400649,0.0004987548454664648,4.712395668029785
235,3.3167269844561815,16781028.1211632,88.71004486083984,237.42999267578125,2.621730327606201,-0.00018598212045617402,0.000668065738864243,9.805148124694824,0.0005160273867659271,0.0004396662989165634,0.000522430578712374,4.712395668029785
236,3.3227269845083356,16781028.3872993,88.71004486083984,237.42999267578125,2.621732711791992,0.0005500646075233817,0.0009171399869956076,9.82073974609375,0.0004989563603885472,0.0004555028863251209,0.00045519357081502676,4.712395668029785
237,3.3287269845604897,16781028.6775437,88.71004486083984,237.42999267578125,2.621734857559204,-0.00013156639761291444,0.000496244290843606,9.800522804260254,0.00046352678327821195,0.0004959781654179096,0.0004887817776761949,4.712395668029785
238,3.3347269846126437,16781028.9545449,88.71004486083984,237.42999267578125,2.621737003326416,0.00011472432379378006,-0.00017710179963614792,9.810154914855957,0.0004746142658405006,0.00045559246791526675,0.0005123990122228861,4.712395668029785
239,3.340726984664798,16781029.2392052,88.71004486083984,237.42999267578125,2.621738910675049,-0.00011348093539709225,-0.0008825017721392214,9.799651145935059,0.0005301775527186692,0.0005017249495722353,0.00047429444384761155,4.712395668029785
240,3.346726984716952,16781029.5189589,88.71004486083984,237.42999267578125,2.6217410564422607,-9.595286974217743e-05,4.651428753277287e-05,9.819755554199219,0.00047944713151082397,0.0004602429107762873,0.000525077513884753,4.712395668029785
241,3.352726984769106,16781029.8069679,88.71004486083984,237.42999267578125,2.6217427253723145,-0.00024156298604793847,-0.0007673861109651625,9.800079345703125,0.0004768083745148033,0.0005375342443585396,0.0005389010184444487,4.712395668029785
242,3.35872698482126,16781030.0910681,88.71004486083984,237.42999267578125,2.6217446327209473,0.0005496758967638016,0.0001377580629196018,9.809082984924316,0.0005349238635972142,0.0005407931166701019,0.0004652440547943115,4.712395668029785
243,3.364726984873414,16781030.3815308,88.71004486083984,237.42999267578125,2.62174654006958,-0.0003713396727107465,-0.0007793175172992051,9.810147285461426,0.0005050516338087618,0.0004778909496963024,0.0004686260363087058,4.712395668029785
244,3.370726984925568,16781030.6836156,88.71004486083984,237.42999267578125,2.621748208999634,-0.0011071260087192059,-0.00011803125380538404,9.810932159423828,0.0005238248268142343,0.00047842683852650225,0.0005151022924110293,4.712395668029785
245,3.376726984977722,16781030.9832806,88.71004486083984,237.42999267578125,2.6217498779296875,-0.0004542996466625482,2.5514762455713935e-05,9.805015563964844,0.0005083607393316925,0.0004979055374860764,0.0005272725247777998,4.712395668029785
246,3.3827269850298762,16781031.2830755,88.71004486083984,237.42999267578125,2.621751308441162,0.00042379082879051566,0.00011509947216836736,9.804954528808594,0.0005157192936167121,0.0004441914497874677,0.0005071057821623981,4.712395668029785
247,3.3887269850820303,16781031.5618148,88.71004486083984,237.42999267578125,2.621752977371216,-0.00018071690283250064,0.0006618346087634563,9.814788818359375,0.0004535917832981795,0.0005409012665040791,0.0005286564701236784,4.712395668029785
248,3.3947269851341844,16781031.8629507,88.71004486083984,237.42999267578125,2.6217544078826904,0.0008506262674927711,0.000687893945723772,9.805204391479492,0.0004371444811113179,0.000531483965460211,0.000439777213614434,4.712395668029785
249,3.4007269851863384,16781032.1450613,88.71004486083984,237.42999267578125,2.621755838394165,-0.0002531504142098129,-2.0507814042503014e-05,9.815296173095703,0.0005369875580072403,0.0004396509611979127,0.0005333406152203679,4.712395668029785
250,3.4067269852384925,16781032.4501794,88.71004486083984,237.42999267578125,2.6217570304870605,1.2062835594406351e-05,-0.0003794226504396647,9.80069637298584,0.0004610579344443977,0.0004953831085003912,0.0005439514061436057,4.712395668029785
251,3.4127269852906466,16781032.7278827,88.71004486083984,237.42999267578125,2.6217586994171143,-5.9461966884555295e-05,-6.75605479045771e-05,9.815274238586426,0.0005577729316428304,0.0004962706589139998,0.0005015708156861365,4.712395668029785
252,3.4187269853428006,16781033.0361229,88.71004486083984,237.42999267578125,2.6217598915100098,0.00016562976816203445,0.00025950782583095133,9.804924011230469,0.0005210520466789603,0.0005314601003192365,0.000531218945980072,4.712395668029785
253,3.4247269853949547,16781033.3181172,88.71004486083984,237.42999267578125,2.6217610836029053,-0.00033731560688465834,0.0001815733703551814,9.809319496154785,0.00044677176629193127,0.0005324269295670092,0.0005549886263906956,4.712395668029785
254,3.4307269854471087,16781033.6418375,88.71004486083984,237.42999267578125,2.621762275695801,-0.0004591823380906135,0.0002160403528250754,9.80496597290039,0.00046323330025188625,0.0005376787157729268,0.00047243875451385975,4.712395668029785
255,3.436726985499263,16781033.9234651,88.71004486083984,237.42999267578125,2.621763229370117,0.00019086104293819517,0.0004192426858935505,9.80479907989502,0.0005078179528936744,0.0005275498842820525,0.0005209913942962885,4.712395668029785
256,3.442726985551417,16781034.2140427,88.71004486083984,237.42999267578125,2.6217644214630127,-0.0009088910883292556,-0.0003203329397365451,9.820255279541016,0.0004724306345451623,0.00045597244752570987,0.0005344176315702498,4.712395668029785
257,3.448726985603571,16781034.4971903,88.71004486083984,237.42999267578125,2.621765375137329,-0.0005105510936118662,-0.0003052947868127376,9.800115585327148,0.0005287330714054406,0.0005326077225618064,0.0004685961175709963,4.712395668029785
258,3.454726985655725,16781034.7945025,88.71004486083984,237.42999267578125,2.621765375137329,-5.960465205134824e-05,-0.0011682625627145171,9.785449981689453,0.0004990837769582868,0.0005140334833413363,0.0004507835255935788,4.712395668029785
259,3.460726985707879,16781035.0853992,88.71004486083984,237.42999267578125,2.621767520904541,-0.00023929208691697568,0.0005822739913128316,9.869767189025879,0.00045579910511150956,0.00042000500252470374,0.00048413185868412256,4.712395668029785
260,3.466726985760033,16781035.3701059,88.71004486083984,237.42999267578125,2.621767520904541,-0.0009665549732744694,-0.0004881511558778584,9.750541687011719,0.0005036609945818782,0.0005049160681664944,0.0004336488782428205,4.712395668029785
261,3.472726985812187,16781035.6746048,88.71004486083984,237.42999267578125,2.621769428253174,0.0007720775902271271,0.0004460343043319881,9.86030387878418,0.00048492581117898226,0.0005038894014433026,0.0004651331983041018,4.712395668029785
262,3.4787269858643413,16781035.9595673,88.71004486083984,237.42999267578125,2.621769428253174,-0.00027949915966019034,0.00012354239879641682,9.760661125183105,0.00047695866669528186,0.0005387626588344574,0.0005158093408681452,4.712395668029785
263,3.4847269859164953,16781036.2534878,88.71004486083984,237.42999267578125,2.6217708587646484,4.8759760829852894e-05,7.152013131417334e-05,9.854894638061523,0.0004995422204956412,0.00048547040205448866,0.0005788487032987177,4.712395668029785
264,3.4907269859686494,16781036.5303695,88.71004486083984,237.42999267578125,2.6217708587646484,3.8005200622137636e-05,-0.00019473840075079352,9.765335083007812,0.000492334773298353,0.0005270895198918879,0.0005202339962124825,4.712395668029785
265,3.4967269860208035,16781036.8305124,88.71004486083984,237.42999267578125,2.6217708587646484,0.0003009255160577595,-5.053108179708943e-05,9.809303283691406,0.0005016977083869278,0.00048367201816290617,0.0005604421603493392,4.712395668029785
266,3.5027269860729575,16781037.1060189,88.71004486083984,237.42999267578125,2.6217708587646484,-0.00011011103924829513,8.788660488789901e-05,9.810574531555176,0.00048653033445589244,0.0004657026438508183,0.0004960630321875215,4.712395668029785
267,3.5087269861251116,16781037.4047729,88.71004486083984,237.42999267578125,2.6217708587646484,0.0005955278757028282,0.00042382124229334295,9.809924125671387,0.00046981306513771415,0.0005257146549411118,0.0005077384994365275,4.712395668029785
268,3.5147269861772656,16781037.6864838,88.71004486083984,237.42999267578125,2.6217708587646484,-0.00020831279107369483,-0.0002562646986916661,9.81033706665039,0.0005092932260595262,0.000506505137309432,0.0005236737197265029,4.712395668029785
269,3.5207269862294197,16781037.9842559,88.71004486083984,237.42999267578125,2.6217708587646484,0.0004109345027245581,0.0003405921452213079,9.809542655944824,0.0005073688225820661,0.0005472477059811354,0.0004714998649433255,4.712395668029785
270,3.5267269862815738,16781038.2613748,88.71004486083984,237.42999267578125,2.621772050857544,-0.00032003456726670265,-0.0006254883483052254,9.845409393310547,0.000514106941409409,0.0004460050258785486,0.0004623639688361436,4.712395668029785
271,3.532726986333728,16781038.5577543,88.71004486083984,237.42999267578125,2.621772050857544,0.00013416045112535357,-0.00044739371514879167,9.775474548339844,0.0004777398135047406,0.0004865512310061604,0.000497865432407707,4.712395668029785
272,3.538726986385882,16781038.8410302,88.71004486083984,237.42999267578125,2.621772050857544,8.33841841085814e-05,0.0007339809671975672,9.80974292755127,0.0004939876380376518,0.00048562788288109004,0.0005174338002689183,4.712395668029785
273,3.544726986438036,16781039.1440967,88.71004486083984,237.42999267578125,2.621772050857544,0.0007051709108054638,-0.00031286317971535027,9.810454368591309,0.0004787846119143069,0.0005002620164304972,0.000502747658174485,4.712395668029785
274,3.55072698649019,16781039.423167,88.71004486083984,237.42999267578125,2.6217732429504395,0.0006464158650487661,0.0004935683100484312,9.839699745178223,0.00045813556062057614,0.0005266714724712074,0.0005178236751817167,4.712395668029785
275,3.556726986542344,16781039.7239565,88.71004486083984,237.42999267578125,2.6217732429504395,-0.0007209667819552124,0.0007555505144409835,9.780057907104492,0.0004972818423993886,0.0005345272948034108,0.0005212293472141027,4.712395668029785
276,3.562726986594498,16781040.0081409,88.71004486083984,237.42999267578125,2.6217732429504395,-0.0002655243151821196,6.55669646221213e-05,9.810315132141113,0.0004962110542692244,0.0005077826208434999,0.0004987242282368243,4.712395668029785
277,3.568726986646652,16781040.32016,88.71004486083984,237.42999267578125,2.621774196624756,0.00038579272222705185,-0.00047853481373749673,9.840958595275879,0.00043183803791180253,0.0005451253382489085,0.0005065519944764674,4.712395668029785
278,3.5747269866988063,16781040.6154847,88.71004486083984,237.42999267578125,2.621774196624756,5.141943256603554e-05,0.0001853839203249663,9.77961540222168,0.0005352055886760354,0.0005044012796133757,0.0004891452845185995,4.712395668029785
279,3.5807269867509604,16781040.89349,88.71004486083984,237.42999267578125,2.621774196624756,6.715906056342646e-05,0.00048136303666979074,9.810662269592285,0.0005470357136800885,0.0005007582367397845,0.00048610189696773887,4.712395668029785
280,3.5867269868031144,16781041.1914713,88.71004486083984,237.42999267578125,2.6217753887176514,-0.00021174659195821732,-0.0003131087578367442,9.839512825012207,0.0005085065495222807,0.000529163284227252,0.0005077068926766515,4.712395668029785
281,3.5927269868552685,16781041.4714732,88.71004486083984,237.42999267578125,2.6217753887176514,-0.0008923441055230796,0.0004030962591059506,9.780282974243164,0.0004857894964516163,0.00048112584045156837,0.00046416750410571694,4.712395668029785
282,3.5987269869074225,16781041.768416,88.71004486083984,237.42999267578125,2.6217753887176514,-0.00025980797363445163,0.001259534852579236,9.809651374816895,0.0005208395305089653,0.0005529163172468543,0.000514208513777703,4.712395668029785
283,3.6047269869595766,16781042.0510903,88.71004486083984,237.42999267578125,2.621776580810547,0.0011693293927237391,0.00011740141781046987,9.843745231628418,0.0004839541215915233,0.0004881305794697255,0.0005064494907855988,4.712395668029785
284,3.6107269870117307,16781042.3533186,88.71004486083984,237.42999267578125,2.621776580810547,0.0003197876503691077,0.0006851539365015924,9.774267196655273,0.0004836954176425934,0.0004926398396492004,0.0005281327175907791,4.712395668029785
285,3.6167269870638847,16781042.6364489,88.71004486083984,237.42999267578125,2.621776580810547,-0.0006275215419009328,0.00027311386656947434,9.810027122497559,0.0004621839616447687,0.0005088967154733837,0.00047601922415196896,4.712395668029785
286,3.622726987116039,16781042.9459822,88.71004486083984,237.42999267578125,2.6217775344848633,-0.00030422257259488106,8.640578744234517e-05,9.834266662597656,0.0004639832186512649,0.0005163238965906203,0.0004919433267787099,4.712395668029785
287,3.628726987168193,16781043.2236189,88.71004486083984,237.42999267578125,2.6217775344848633,-0.00031444887281395495,0.00022352502855937928,9.785619735717773,0.0004533231258392334,0.0004413774877320975,0.0004908707342110574,4.712395668029785
288,3.634726987220347,16781043.52898,88.71004486083984,237.42999267578125,2.6217775344848633,0.0008423000108450651,-0.000287713686702773,9.808772087097168,0.00048125337343662977,0.0004525541444309056,0.0004639510007109493,4.712395668029785
289,3.640726987272501,16781043.8133971,88.71004486083984,237.42999267578125,2.621778726577759,0.0005016580689698458,0.001127763418480754,9.844572067260742,0.0004824057104997337,0.0004995681811124086,0.0004911887808702886,4.712395668029785
290,3.646726987324655,16781044.1115472,88.71004486083984,237.42999267578125,2.621778726577759,7.215150981210172e-05,0.0006874374812468886,9.773941040039062,0.0004524375544860959,0.00048758042976260185,0.00046626178664155304,4.712395668029785
291,3.652726987376809,16781044.3888802,88.71004486083984,237.42999267578125,2.621778726577759,-6.755363574484363e-05,-0.00047498251660726964,9.809006690979004,0.0005295440787449479,0.0004851544217672199,0.00048704742221161723,4.712395668029785
292,3.658726987428963,16781044.6845991,88.71004486083984,237.42999267578125,2.621778726577759,-0.00014741801714990288,-2.9937271392554976e-05,9.81011962890625,0.0004987556021660566,0.0004994180053472519,0.00046312567428685725,4.712395668029785
293,3.6647269874811172,16781044.9674621,88.71004486083984,237.42999267578125,2.6217799186706543,-0.00012324702402111143,-0.0004088035202585161,9.845415115356445,0.0005116101820021868,0.0004512656305450946,0.000492695311550051,4.712395668029785
294,3.6707269875332713,16781045.2523526,88.71004486083984,237.42999267578125,2.6217799186706543,0.0001795901043806225,-0.00021252756414469332,9.774788856506348,0.0005268981331028044,0.00046283818664960563,0.0005520881386473775,4.712395668029785
295,3.6767269875854254,16781045.5414837,88.71004486083984,237.42999267578125,2.6217799186706543,0.0008927574381232262,0.000519125780556351,9.809884071350098,0.0005131140351295471,0.0005395254120230675,0.00045268679969012737,4.712395668029785
296,3.6827269876375794,16781045.8423892,88.71004486083984,237.42999267578125,2.6217799186706543,-0.000219721274334006,0.00010764235048554838,9.809917449951172,0.00046824399032630026,0.0005610488587990403,0.0004989634035155177,4.712395668029785
297,3.6887269876897335,16781046.1322597,88.71004486083984,237.42999267578125,2.621781349182129,0.00031342808506451547,0.00019721993885468692,9.845246315002441,0.0005257557495497167,0.0005039351526647806,0.00047264641034416854,4.712395668029785
298,3.6947269877418876,16781046.4212182,88.71004486083984,237.42999267578125,2.621781349182129,-0.0004854071303270757,-9.363683784613386e-05,9.775738716125488,0.00047289469512179494,0.0005178775754757226,0.0004987079300917685,4.712395668029785
299,3.7007269877940416,16781046.7308215,88.71004486083984,237.42999267578125,2.621781349182129,0.0003333937202114612,0.0008759263437241316,9.810348510742188,0.0005164411850273609,0.0004931007279083133,0.0004886687966063619,4.712395668029785
300,3.7067269878461957,16781047.0176784,88.71004486083984,237.42999267578125,2.621781349182129,-5.1242772315163165e-05,0.0005821559461764991,9.809618949890137,0.0004790780949406326,0.0005003437399864197,0.00043596996692940593,4.712395668029785
301,3.7127269878983498,16781047.3229209,88.71004486083984,237.42999267578125,2.621782064437866,-0.001015429850667715,-5.09222227265127e-05,9.834447860717773,0.0005280611803755164,0.0004722833400592208,0.00047627900494262576,4.712395668029785
302,3.718726987950504,16781047.6102731,88.71004486083984,237.42999267578125,2.621782064437866,0.0006904818001203239,-0.0008424466941505671,9.784392356872559,0.0005395525367930532,0.0005357965128496289,0.0005339714698493481,4.712395668029785
303,3.724726988002658,16781047.9114386,88.71004486083984,237.42999267578125,2.621782064437866,-9.331032197223976e-05,0.0009410294005647302,9.80984878540039,0.0005168621428310871,0.0005272489506751299,0.0005178229184821248,4.712395668029785
304,3.730726988054812,16781048.1955708,88.71004486083984,237.42999267578125,2.621782064437866,0.0004101554804947227,0.00038584033609367907,9.80976390838623,0.0005241934559307992,0.0005281483754515648,0.0005703322822228074,4.712395668029785
305,3.736726988106966,16781048.5026207,88.71004486083984,237.42999267578125,2.621782064437866,-0.00030744087416678667,-0.0003294055350124836,9.810501098632812,0.0005200485466048121,0.000546688970644027,0.0004958631470799446,4.712395668029785
306,3.74272698815912,16781048.7862316,88.71004486083984,237.42999267578125,2.621783494949341,-0.0003849529311992228,-0.00012745063577312976,9.839850425720215,0.0005011644680052996,0.0004657918761949986,0.0004879834596067667,4.712395668029785
307,3.748726988211274,16781049.0772869,88.71004486083984,237.42999267578125,2.621783494949341,-0.0008500532130710781,-0.0001285407051909715,9.779744148254395,0.0004935453762300313,0.0004908390692435205,0.0005089439218863845,4.712395668029785
308,3.754726988263428,16781049.3717286,88.71004486083984,237.42999267578125,2.621783494949341,0.0004976190975867212,9.006800246424973e-05,9.809990882873535,0.000562650675419718,0.0005365061806514859,0.0005460483371280134,4.712395668029785
309,3.7607269883155823,16781049.6777444,88.71004486083984,237.42999267578125,2.621783494949341,-5.555006646318361e-05,0.00013882419443689287,9.810193061828613,0.0004955939366482198,0.0004902371438220143,0.0004978188662789762,4.712395668029785
310,3.7667269883677363,16781049.9720669,88.71004486083984,237.42999267578125,2.621783494949341,-0.0002479588729329407,-0.0006084898486733437,9.810131072998047,0.0005192935932427645,0.0005378065397962928,0.0004769999359268695,4.712395668029785
311,3.7727269884198904,16781050.4345382,88.71004486083984,237.42999267578125,2.621783494949341,2.4736766135902144e-05,3.0972925742389634e-05,9.809865951538086,0.00048786000115796924,0.00046896771527826786,0.00047247743350453675,4.712395668029785
312,3.7787269884720445,16781050.7941073,88.71004486083984,237.42999267578125,2.6217846870422363,0.00024747714633122087,-0.000410978653235361,9.84514331817627,0.00047731283120810986,0.0005251041147857904,0.0005037522641941905,4.712395668029785
313,3.7847269885241985,16781051.1296791,88.71004486083984,237.42999267578125,2.6217846870422363,-0.00044696370605379343,-0.0005875471979379654,9.774177551269531,0.000462533556856215,0.00048674584832042456,0.0004996758070774376,4.712395668029785
314,3.7907269885763526,16781051.4516701,88.71004486083984,237.42999267578125,2.6217846870422363,0.0004664066364057362,-0.0003111636033281684,9.809199333190918,0.0004305994079913944,0.0005446210852824152,0.0005111133796162903,4.712395668029785
315,3.7967269886285067,16781051.777816,88.71004486083984,237.42999267578125,2.6217846870422363,-0.0005509676993824542,-0.00035117717925459146,9.809309959411621,0.0005095771630294621,0.000508429657202214,0.0005088887992314994,4.712395668029785
316,3.8027269886806607,16781052.0846635,88.71004486083984,237.42999267578125,2.6217846870422363,-0.00029767773230560124,6.247699639061466e-05,9.810124397277832,0.0004730098007712513,0.0004870876728091389,0.0005252015544101596,4.712395668029785
317,3.808726988732815,16781052.395382,88.71004486083984,237.42999267578125,2.6217846870422363,-3.832293805317022e-05,-0.0008240495808422565,9.809595108032227,0.0005108031327836215,0.00047913496382534504,0.0004944510874338448,4.712395668029785
318,3.814726988784969,16781052.7128955,88.71004486083984,237.42999267578125,2.6217846870422363,0.00017930284957401454,-1.58323127834592e-05,9.809248924255371,0.00047194171929731965,0.0004802911134902388,0.0005126043688505888,4.712395668029785
319,3.820726988837123,16781053.0087927,88.71004486083984,237.42999267578125,2.6217856407165527,-0.0001399920874973759,0.0004301894805394113,9.835344314575195,0.0005271525587886572,0.000540297303814441,0.0005233394913375378,4.712395668029785
320,3.826726988889277,16781053.3200894,88.71004486083984,237.42999267578125,2.6217856407165527,-0.001016930676996708,-0.0004547909484244883,9.785112380981445,0.0004706725012511015,0.0004837348242290318,0.0004780516610480845,4.712395668029785
321,3.832726988941431,16781053.6374015,88.71004486083984,237.42999267578125,2.6217856407165527,0.0001469579292461276,-0.0007030636188574135,9.810369491577148,0.0005320222117006779,0.0004877756582573056,0.0004759650328196585,4.712395668029785
322,3.838726988993585,16781053.9689024,88.71004486083984,237.42999267578125,2.6217856407165527,0.000571726995985955,-0.0007361781899817288,9.810280799865723,0.0004646514425985515,0.0004939284408465028,0.0005175689584575593,4.712395668029785
323,3.844726989045739,16781054.3020739,88.71004486083984,237.42999267578125,2.6217856407165527,0.000646929838694632,0.0002941880375146866,9.810505867004395,0.0004966504056937993,0.0005428405129350722,0.0005095783853903413,4.712395668029785
324,3.8507269890978932,16781054.717914,88.71004486083984,237.42999267578125,2.6217856407165527,0.00015143791097216308,-0.0004428007814567536,9.809943199157715,0.0004872686113230884,0.0004836664302274585,0.0005548550980165601,4.712395668029785
325,3.8567269891500473,16781055.0585661,88.71004486083984,237.42999267578125,2.6217856407165527,-1.1036366231564898e-05,-0.0005468862364068627,9.809517860412598,0.0004945602850057185,0.0005203866749070585,0.0004955922486260533,4.712395668029785
326,3.8627269892022014,16781055.3717299,88.71004486083984,237.42999267578125,2.6217856407165527,1.908186823129654e-05,-0.0005328913102857769,9.8098726272583,0.00048262247582897544,0.0005383302341215312,0.00046454937546513975,4.712395668029785
327,3.8687269892543554,16781055.6640219,88.71004486083984,237.42999267578125,2.6217856407165527,0.00038830898120068014,-0.00032238324638456106,9.810123443603516,0.0005396674969233572,0.0004993476322852075,0.0004928646958433092,4.712395668029785
328,3.8747269893065095,16781055.983391,88.71004486083984,237.42999267578125,2.62178635597229,0.001282107550650835,0.0004264976887498051,9.834871292114258,0.0005004656268283725,0.0005055663641542196,0.00048167226486839354,4.712395668029785
329,3.8807269893586636,16781056.2728191,88.71004486083984,237.42999267578125,2.62178635597229,-0.0008555817184969783,-0.0005377625348046422,9.785079956054688,0.0005276107112877071,0.0004917229525744915,0.0004911216092295945,4.712395668029785
330,3.8867269894108176,16781056.6526233,88.71004486083984,237.42999267578125,2.62178635597229,-0.00037326320307329297,-0.00021707563428208232,9.810420036315918,0.0005260016769170761,0.0005475500365719199,0.0004642400599550456,4.712395668029785
331,3.8927269894629717,16781057.0448666,88.71004486083984,237.42999267578125,2.62178635597229,0.0001931797742145136,-0.0006057540886104107,9.809846878051758,0.0004935002070851624,0.0005523193394765258,0.0005176367121748626,4.712395668029785
332,3.8987269895151258,16781057.419953,88.71004486083984,237.42999267578125,2.62178635597229,1.9379262084839866e-05,0.00010004147770814598,9.810022354125977,0.0005060856346972287,0.00046689817099832,0.000520166358910501,4.712395668029785
333,3.90472698956728,16781057.8117264,88.71004486083984,237.42999267578125,2.62178635597229,-6.186940481711645e-06,0.0006728670559823513,9.810129165649414,0.00047528950381092727,0.0005117849796079099,0.000494839739985764,4.712395668029785
334,3.910726989619434,16781058.2248915,88.71004486083984,237.42999267578125,2.62178635597229,0.0005978146218694746,0.00048441189574077725,9.809965133666992,0.00047810954856686294,0.00046103610657155514,0.0005271604168228805,4.712395668029785
335,3.916726989671588,16781058.666967,88.71004486083984,237.42999267578125,2.62178635597229,-1.0877958629862405e-05,-0.0006083418847993016,9.809521675109863,0.0005412898608483374,0.0004928982234559953,0.0005055655492469668,4.712395668029785
336,3.922726989723742,16781059.0475393,88.71004486083984,237.42999267578125,2.62178635597229,-0.00042294891318306327,-0.0003895882982760668,9.809733390808105,0.0005139776621945202,0.00047439575428143144,0.00047860326594673097,4.712395668029785
337,3.928726989775896,16781059.4719685,88.71004486083984,237.42999267578125,2.62178635597229,-0.0006287220166996121,-4.8295212764060125e-05,9.810256004333496,0.0004734628600999713,0.0005151826771907508,0.0005042081465944648,4.712395668029785
338,3.93472698982805,16781059.8570166,88.71004486083984,237.42999267578125,2.62178635597229,-1.3166079043003265e-05,-0.0006351892370730639,9.810019493103027,0.0004142249235883355,0.00046673635370098054,0.0005248943343758583,4.712395668029785
339,3.940726989880204,16781060.2347693,88.71004486083984,237.42999267578125,2.62178635597229,-0.0003722812107298523,-0.00012480125587899238,9.810491561889648,0.000507775810547173,0.0004659922269638628,0.000472926942165941,4.712395668029785
340,3.9467269899323583,16781060.604178,88.71004486083984,237.42999267578125,2.62178635597229,-9.041505109053105e-06,0.0006352619384415448,9.808828353881836,0.0005274075083434582,0.0004610532196238637,0.0005511700874194503,4.712395668029785
341,3.9527269899845123,16781060.9728004,88.71004486083984,237.42999267578125,2.62178635597229,-0.0003436536935623735,-0.00037147814873605967,9.809991836547852,0.0005316735478118062,0.0005246998625807464,0.0004868761170655489,4.712395668029785
342,3.9587269900366664,16781061.3443575,88.71004486083984,237.42999267578125,2.62178635597229,8.007488213479519e-05,0.00010609254240989685,9.810530662536621,0.0005467039300128818,0.0005124984309077263,0.0004941362421959639,4.712395668029785
343,3.9647269900888205,16781061.7088381,88.71004486083984,237.42999267578125,2.62178635597229,-0.000287363218376413,-0.0010600642999634147,9.80955982208252,0.0004528865101747215,0.000531101250089705,0.0005096313543617725,4.712395668029785
344,3.9707269901409745,16781062.1012843,88.71004486083984,237.42999267578125,2.62178635597229,0.00046948084491305053,-0.0005424375412985682,9.809928894042969,0.00045194817357696593,0.0004985887208022177,0.00047926243860274553,4.712395668029785
345,3.9767269901931286,16781062.5161189,88.71004486083984,237.42999267578125,2.62178635597229,-0.000228126606089063,-0.00047217702376656234,9.810348510742188,0.0005583215970546007,0.00046054189442656934,0.0004907113034278154,4.712395668029785
346,3.9827269902452826,16781062.9118316,88.71004486083984,237.42999267578125,2.62178635597229,-0.0007997839711606503,-0.000476746674394235,9.809761047363281,0.00045604477054439485,0.0004935128963552415,0.0004995985073037446,4.712395668029785
347,3.9887269902974367,16781063.2915871,88.71004486083984,237.42999267578125,2.62178635597229,0.00025601658853702247,-6.522373587358743e-05,9.809218406677246,0.00046851063962094486,0.0005027600564062595,0.0005118791596032679,4.712395668029785
348,3.994726990349591,16781063.6953329,88.71004486083984,237.42999267578125,2.62178635597229,-0.00026242234162054956,-0.00035121169639751315,9.809812545776367,0.0005009463638998568,0.0004964838735759258,0.0004451476561371237,4.712395668029785
349,4.000726990401745,16781064.1901995,88.71004486083984,237.42999267578125,2.62178635597229,-0.00028093450237065554,0.00023553021310362965,9.810495376586914,0.0005671033286489546,0.00045436667278409004,0.000450543244369328,4.712395668029785
350,4.006726990453899,16781064.6232691,88.71004486083984,237.42999267578125,2.62178635597229,-0.0003507151559460908,2.379847501288168e-05,9.810601234436035,0.0005069652106612921,0.0005477038212120533,0.0004385113134048879,4.712395668029785
351,4.012726990506053,16781065.0317309,88.71004486083984,237.42999267578125,2.62178635597229,5.289240107231308e-06,-0.00014106287562754005,9.809197425842285,0.0004353669937700033,0.0005002100369893014,0.0005219294689595699,4.712395668029785
352,4.018726990558207,16781065.8910625,88.71004486083984,237.42999267578125,2.62178635597229,0.00018799719691742212,0.000691740948241204,9.810983657836914,0.0005072777858003974,0.0004984394181519747,0.00044492509914562106,4.712395668029785
353,4.024726990610361,16781066.2865474,88.71004486083984,237.42999267578125,2.62178635597229,0.0005083253490738571,-0.0004799278103746474,9.810547828674316,0.0004935193574056029,0.0005220561288297176,0.0004556314670480788,4.712395668029785
354,4.030726990662515,16781066.8344231,88.71004486083984,237.42999267578125,2.6217875480651855,-0.00045299981138668954,0.0009134130668826401,9.844582557678223,0.0004971371963620186,0.0004991578753106296,0.0004989680019207299,4.712395668029785
355,4.036726990714669,16781067.2662662,88.71004486083984,237.42999267578125,2.6217875480651855,-3.166481474181637e-05,0.00027044277521781623,9.774259567260742,0.0005326835671439767,0.0004839262110181153,0.0004155629430897534,4.712395668029785
356,4.042726990766823,16781067.7183963,88.71004486083984,237.42999267578125,2.6217875480651855,0.0006580925546586514,-1.2696483281615656e-05,9.809616088867188,0.000529311248101294,0.0004956138436682522,0.0004945754772052169,4.712395668029785
357,4.048726990818977,16781068.3883496,88.71004486083984,237.42999267578125,2.6217875480651855,0.00020214931282680482,0.0005191363161429763,9.81060791015625,0.00046749861212447286,0.0005300714401528239,0.000510899000801146,4.712395668029785
358,4.054726990871131,16781068.878537,88.71004486083984,237.42999267578125,2.6217875480651855,1.4258610463002697e-05,-0.0005484106368385255,9.810248374938965,0.0005062324926257133,0.0004428307292982936,0.0005018935771659017,4.712395668029785
359,4.0607269909232855,16781069.3145119,88.71004486083984,237.42999267578125,2.6217875480651855,-0.0009412217768840492,2.2991753212409094e-05,9.809492111206055,0.0005029376479797065,0.0005220176535658538,0.0005054684006609023,4.712395668029785
360,4.0667269909754395,16781069.7487861,88.71004486083984,237.42999267578125,2.6217875480651855,-0.0011578848352655768,-0.00010403931810287759,9.809861183166504,0.0005202735774219036,0.0005137581611052155,0.0005202754400670528,4.712395668029785
361,4.072726991027594,16781070.6521521,88.71004486083984,237.42999267578125,2.6217875480651855,0.0009526468929834664,0.00012887416232842952,9.80996322631836,0.00047645371523685753,0.00046470927190966904,0.000532659818418324,4.712395668029785
362,4.078726991079748,16781071.2170966,88.71004486083984,237.42999267578125,2.6217875480651855,0.0007399800233542919,-0.00048691246774978936,9.809371948242188,0.0004892161814495921,0.00048777813208289444,0.0005132218357175589,4.712395668029785
363,4.084726991131902,16781071.7118436,88.71004486083984,237.42999267578125,2.6217875480651855,0.00021498311252798885,-0.0008078498067334294,9.810033798217773,0.00047105815610848367,0.000511023448780179,0.0005134405801072717,4.712395668029785
364,4.090726991184056,16781072.2905099,88.71004486083984,237.42999267578125,2.6217875480651855,1.3609819689008873e-06,-0.0003570940752979368,9.809957504272461,0.0005027015577070415,0.0004405473591759801,0.0005059243994764984,4.712395668029785
365,4.09672699123621,16781072.7290651,88.71004486083984,237.42999267578125,2.6217875480651855,5.137567495694384e-05,0.00026243727188557386,9.81049919128418,0.0004691867216024548,0.000559238251298666,0.0004963185056112707,4.712395668029785
366,4.102726991288364,16781073.1705672,88.71004486083984,237.42999267578125,2.6217875480651855,0.00021406095765996724,-0.0002472060441505164,9.8101224899292,0.0005261845653876662,0.0005009372252970934,0.0005069385515525937,4.712395668029785
367,4.108726991340518,16781073.5917642,88.71004486083984,237.42999267578125,2.6217875480651855,9.725142444949597e-05,-0.000684943690430373,9.810108184814453,0.000496114487759769,0.0005251713446341455,0.0004442789067979902,4.712395668029785
368,4.114726991392672,16781074.004879,88.71004486083984,237.42999267578125,2.6217875480651855,0.0004117343050893396,-0.00035208839108236134,9.809371948242188,0.00048413907643407583,0.0005009819869883358,0.0005202521570026875,4.712395668029785
369,4.120726991444826,16781074.3941594,88.71004486083984,237.42999267578125,2.6217875480651855,0.0008161832229234278,0.0002567354531493038,9.809948921203613,0.0004847003147006035,0.0005193311953917146,0.0004620012186933309,4.712395668029785
370,4.12672699149698,16781074.8633608,88.71004486083984,237.42999267578125,2.6217875480651855,0.0006401059217751026,-0.0002861595421563834,9.810051918029785,0.0005493215867318213,0.0005330985877662897,0.000467832840513438,4.712395668029785
371,4.132726991549134,16781075.3787768,88.71004486083984,237.42999267578125,2.6217875480651855,0.0007853772840462625,-0.0007006701198406518,9.810551643371582,0.0004954798496328294,0.0005016322247684002,0.0005263900966383517,4.712395668029785
372,4.138726991601288,16781075.9604753,88.71004486083984,237.42999267578125,2.6217875480651855,-0.000976698356680572,-0.0003692920145113021,9.810404777526855,0.0005162737215869129,0.00047090608859434724,0.0005435007624328136,4.712395668029785
373,4.144726991653442,16781076.5120251,88.71004486083984,237.42999267578125,2.6217875480651855,-0.0007378454902209342,-0.0011470892932265997,9.809503555297852,0.0005269849207252264,0.00041685544420033693,0.00046808546176180243,4.712395668029785
374,4.1507269917055964,16781077.1100574,88.71004486083984,237.42999267578125,2.6217875480651855,-0.0006928073707967997,-0.0001366069627692923,9.810104370117188,0.0005348692066036165,0.000510965590365231,0.0005149883218109608,4.712395668029785
375,4.1567269917577505,16781077.8074697,88.71004486083984,237.42999267578125,2.6217875480651855,-0.00029880221700295806,0.0006324393907561898,9.80970573425293,0.0005435600760392845,0.0005195314879529178,0.0004858464526478201,4.712395668029785
376,4.162726991809905,16781078.3050251,88.71004486083984,237.42999267578125,2.6217875480651855,-5.438534208224155e-05,0.00021191246923990548,9.809642791748047,0.00047122908290475607,0.0004916436737403274,0.0004939290811307728,4.712395668029785
377,4.168726991862059,16781078.8107706,88.71004486083984,237.42999267578125,2.6217875480651855,-0.0004274352977517992,-0.0006004929891787469,9.809980392456055,0.0004976057098247111,0.00048792699817568064,0.00047139995149336755,4.712395668029785
378,4.174726991914213,16781079.3166923,88.71004486083984,237.42999267578125,2.6217875480651855,-0.00037893475382588804,0.00027174476417712867,9.809545516967773,0.000501670700032264,0.0004903249791823328,0.0005228535737842321,4.712395668029785
379,4.180726991966367,16781079.7976375,88.71004486083984,237.42999267578125,2.6217875480651855,0.0010371081298217177,-0.0001994989870581776,9.81025505065918,0.0005006291321478784,0.0004935853066854179,0.00048723199870437384,4.712395668029785
380,4.186726992018521,16781080.3462537,88.71004486083984,237.42999267578125,2.6217875480651855,0.001082715461961925,0.0005207412177696824,9.809444427490234,0.0005180204170756042,0.0004875637241639197,0.0005174503894522786,4.712395668029785
381,4.192726992070675,16781081.0030643,88.71004486083984,237.42999267578125,2.6217875480651855,0.00043973815627396107,-0.0006324441055767238,9.809931755065918,0.0004572857287712395,0.0005206831847317517,0.00044841101043857634,4.712395668029785
382,4.198726992122829,16781081.4703586,88.71004486083984,237.42999267578125,2.6217875480651855,3.5598957765614614e-05,0.00015559163875877857,9.809951782226562,0.0005124422605149448,0.0005004871636629105,0.0005033069755882025,4.712395668029785
383,4.204726992174983,16781081.9424286,88.71004486083984,237.42999267578125,2.6217875480651855,0.0005325942183844745,-0.0005153069505468011,9.809713363647461,0.000549929216504097,0.0005082152783870697,0.0005090447957627475,4.712395668029785
384,4.210726992227137,16781082.4993785,88.71004486083984,237.42999267578125,2.6217875480651855,0.00017194201063830405,-0.00012855888053309172,9.809879302978516,0.0004695823008660227,0.0004756891285069287,0.00052820541895926,4.712395668029785
385,4.216726992279291,16781082.9369915,88.71004486083984,237.42999267578125,2.6217875480651855,-0.00043410196667537093,-0.0005323224468156695,9.81071949005127,0.00048446128494106233,0.0005250829271972179,0.00044239297858439386,4.712395668029785
386,4.222726992331445,16781083.8036129,88.71004486083984,237.42999267578125,2.6217875480651855,0.001151881879195571,-0.0012054280377924442,9.810028076171875,0.0005266718799248338,0.0005210275994613767,0.0004575068596750498,4.712395668029785
387,4.228726992383599,16781084.8354333,88.71004486083984,237.42999267578125,2.6217875480651855,0.0006274949992075562,-0.0014559959527105093,9.810200691223145,0.0004844785435125232,0.0005211170064285398,0.0005402076058089733,4.712395668029785
388,4.234726992435753,16781085.3024064,88.71004486083984,237.42999267578125,2.6217875480651855,0.00012829943443648517,-0.0004204817523714155,9.810093879699707,0.0005036108777858317,0.0004989816225133836,0.0005107471952214837,4.712395668029785
389,4.240726992487907,16781085.6415189,88.71004486083984,237.42999267578125,2.6217875480651855,-0.0004916487378068268,-5.3134008339839056e-05,9.81025505065918,0.0005164149333722889,0.0005241878679953516,0.0004731962108053267,4.712395668029785
390,4.2467269925400615,16781085.9952866,88.71004486083984,237.42999267578125,2.6217875480651855,0.0001682119764154777,0.0005659929593093693,9.809762954711914,0.0004524769901763648,0.00048673636047169566,0.0005738516338169575,4.712395668029785
391,4.2527269925922155,16781086.3927095,88.71004486083984,237.42999267578125,2.6217875480651855,-0.0010950610740110278,0.0003483522741589695,9.81015682220459,0.0005296944291330874,0.000512951344717294,0.0004790144448634237,4.712395668029785
392,4.25872699264437,16781086.8608267,88.71004486083984,237.42999267578125,2.6217875480651855,0.0005085273296572268,0.00033406849252060056,9.809414863586426,0.000490108912345022,0.0005229023518040776,0.0005326304817572236,4.712395668029785
393,4.264726992696524,16781087.3351543,88.71004486083984,237.42999267578125,2.6217875480651855,-7.346631900873035e-05,-0.00030958428396843374,9.810555458068848,0.0004884284571744502,0.0005232120165601373,0.0005078465910628438,4.712395668029785
394,4.270726992748678,16781087.8454265,88.71004486083984,237.42999267578125,2.6217875480651855,0.0003493115946184844,-1.206895012728637e-05,9.811115264892578,0.0004783271288033575,0.0005175541737116873,0.0005017317598685622,4.712395668029785
395,4.276726992800832,16781088.2755212,88.71004486083984,237.42999267578125,2.6217875480651855,-0.00034557378967292607,0.00018553424160927534,9.81020736694336,0.0004930357681587338,0.0005078873364254832,0.0004911374417133629,4.712395668029785
396,4.282726992852986,16781088.6985913,88.71004486083984,237.42999267578125,2.6217875480651855,0.00040239206282421947,-0.0005363595555536449,9.810101509094238,0.00048128943308256567,0.0005195592530071735,0.00048793788300827146,4.712395668029785
397,4.28872699290514,16781089.1744218,88.71004486083984,237.42999267578125,2.6217875480651855,-0.00023142603458836675,0.00021351122995838523,9.810112953186035,0.0005271810223348439,0.0004815527063328773,0.000497358909342438,4.712395668029785
398,4.294726992957294,16781089.5625472,88.71004486083984,237.42999267578125,2.6217875480651855,0.0002195630077039823,-1.215694828715641e-05,9.810315132141113,0.00044995281496085227,0.0005109421908855438,0.0005237596924416721,4.712395668029785
399,4.300726993009448,16781089.8998719,88.71004486083984,237.42999267578125,2.6217875480651855,-0.0011107621248811483,-4.3683114199666306e-05,9.80978775024414,0.0004887791583314538,0.00045829161535948515,0.0005139245186001062,4.712395668029785
400,4.306726993061602,16781090.2439641,88.71004486083984,237.42999267578125,2.6217875480651855,-0.000685318314936012,8.175567199941725e-05,9.810563087463379,0.0004698637640103698,0.0004949477151967585,0.0005093416548334062,4.712395668029785
401,4.312726993113756,16781090.6615379,88.71004486083984,237.42999267578125,2.6217875480651855,0.00034444849006831646,0.00015364083810709417,9.80964183807373,0.0005251007387414575,0.00048727766261436045,0.0005628734361380339,4.712395668029785
402,4.31872699316591,16781091.204613,88.71004486083984,237.42999267578125,2.6217875480651855,-0.00019172638712916523,-0.000992933171801269,9.809516906738281,0.0005030866013839841,0.00046965989167802036,0.0004987938445992768,4.712395668029785
403,4.324726993218064,16781091.7772157,88.71004486083984,237.42999267578125,2.6217875480651855,-0.00016362177848350257,-9.318510274169967e-05,9.810871124267578,0.0005270231049507856,0.0004706180770881474,0.0005181632004678249,4.712395668029785
404,4.330726993270218,16781092.3067016,88.71004486083984,237.42999267578125,2.6217875480651855,8.269373211078346e-05,0.0006078162114135921,9.810029029846191,0.00046663699322380126,0.0005216629942879081,0.0004972567548975348,4.712395668029785
405,4.336726993322372,16781093.4243234,88.71004486083984,237.42999267578125,2.6217875480651855,-0.00037466658977791667,0.00047075524344109,9.808911323547363,0.0005235251737758517,0.00047242766595445573,0.00047729708603583276,4.712395668029785
406,4.3427269933745265,16781094.0931375,88.71004486083984,237.42999267578125,2.6217875480651855,-0.00012346966832410544,-0.00017135730013251305,9.810474395751953,0.0004708984633907676,0.0004778086149599403,0.0005093237850815058,4.712395668029785
407,4.348726993426681,16781094.5576582,88.71004486083984,237.42999267578125,2.6217875480651855,0.0004783041076734662,-0.0002801296068355441,9.809762954711914,0.0005195778212510049,0.000494224950671196,0.000548804528079927,4.712395668029785
408,4.354726993478835,16781095.0417454,88.71004486083984,237.42999267578125,2.6217875480651855,0.0003148251853417605,0.0001970702433027327,9.8095703125,0.000494257197715342,0.00047657679533585906,0.0004848406242672354,4.712395668029785
409,4.360726993530989,16781095.7131165,88.71004486083984,237.42999267578125,2.6217875480651855,-9.936562128132209e-05,-0.00017712543194647878,9.810606002807617,0.0005125661846250296,0.0005217574653215706,0.00048253167187795043,4.712395668029785
410,4.366726993583143,16781096.2125269,88.71004486083984,237.42999267578125,2.6217875480651855,0.0003529516397975385,7.489393465220928e-05,9.811298370361328,0.0005440846434794366,0.0005221469327807426,0.0004953705938532948,4.712395668029785
411,4.372726993635297,16781096.6537984,88.71004486083984,237.42999267578125,2.6217875480651855,-0.00021531050151679665,-0.0004098381905350834,9.809646606445312,0.0005078629474155605,0.00047468923730775714,0.0005106608150526881,4.712395668029785
412,4.378726993687451,16781097.094454,88.71004486083984,237.42999267578125,2.6217875480651855,0.00029727513901889324,0.0003456149424891919,9.810478210449219,0.0004615105572156608,0.0005438407533802092,0.0005230379174463451,4.712395668029785
413,4.384726993739605,16781097.5432613,88.71004486083984,237.42999267578125,2.6217875480651855,0.0005153966485522687,0.00028965595993213356,9.81003475189209,0.0005184845067560673,0.0005035169306211174,0.00047026583342812955,4.712395668029785
414,4.390726993791759,16781098.0299505,88.71004486083984,237.42999267578125,2.6217875480651855,0.0004079030768480152,-6.799139373470098e-05,9.810595512390137,0.00045351849985308945,0.0004807316290680319,0.0004979130462743342,4.712395668029785
415,4.396726993843913,16781098.4556797,88.71004486083984,237.42999267578125,2.6217875480651855,0.00031365922768600285,-0.0009973387932404876,9.810150146484375,0.0005429270095191896,0.0004985546111129224,0.0004829161916859448,4.712395668029785
416,4.402726993896067,16781098.8832439,88.71004486083984,237.42999267578125,2.6217875480651855,-0.0004993476322852075,0.0003655209147837013,9.810062408447266,0.0005395818152464926,0.00047493373858742416,0.00047153286868706346,4.712395668029785
417,4.408726993948221,16781099.2718079,88.71004486083984,237.42999267578125,2.6217875480651855,-0.0016845309874042869,-0.00015222508227452636,9.81103229522705,0.0005010516033507884,0.0005391528247855604,0.0004991148016415536,4.712395668029785
418,4.414726994000375,16781099.7038243,88.71004486083984,237.42999267578125,2.6217875480651855,0.00012959251762367785,-0.0005707972450181842,9.809768676757812,0.0004733592504635453,0.0005487020243890584,0.0004884995287284255,4.712395668029785
419,4.420726994052529,16781100.2300613,88.71004486083984,237.42999267578125,2.6217875480651855,0.00021180797193665057,0.00019682029960677028,9.809585571289062,0.00046841820585541427,0.0005154801183380187,0.0004748893261421472,4.712395668029785
420,4.426726994104683,16781100.6730794,88.71004486083984,237.42999267578125,2.6217875480651855,7.458077743649483e-05,-8.958518264989834e-06,9.81000804901123,0.0005448607262223959,0.0004795902350451797,0.0004951239097863436,4.712395668029785
421,4.4327269941568375,16781101.0821395,88.71004486083984,237.42999267578125,2.6217875480651855,-2.8401685995049775e-05,0.0003368952311575413,9.810612678527832,0.0005004629492759705,0.0004682974540628493,0.00048660163884051144,4.712395668029785
422,4.4387269942089915,16781101.498176,88.71004486083984,237.42999267578125,2.6217875480651855,5.2922168833902106e-05,0.00022904021898284554,9.810495376586914,0.0004912377335131168,0.00044930900912731886,0.0004856910090893507,4.712395668029785
423,4.444726994261146,16781101.8727331,88.71004486083984,237.42999267578125,2.6217875480651855,6.874831160530448e-05,0.00024943629978224635,9.810134887695312,0.000508915341924876,0.0004940680810250342,0.0004687118635047227,4.712395668029785
424,4.4507269943133,16781102.2937939,88.71004486083984,237.42999267578125,2.6217875480651855,-0.000263587775407359,0.0003311538021080196,9.809459686279297,0.0005540911224670708,0.000500377849675715,0.0005133045488037169,4.712395668029785
425,4.456726994365454,16781102.7404826,88.71004486083984,237.42999267578125,2.6217875480651855,-0.00022180876112543046,-0.00034299318213015795,9.810298919677734,0.0004740859440062195,0.0005481490516103804,0.0004662552382797003,4.712395668029785
426,4.462726994417608,16781103.2821334,88.71002960205078,237.42999267578125,2.621788263320923,0.48042261600494385,-7.975569315021858e-05,9.824438095092773,0.00043083704076707363,0.0004544421099126339,0.0003917806316167116,4.712395668029785
427,4.468726994469762,16781103.6769318,88.70909118652344,237.42996215820312,2.621779441833496,25.60079574584961,0.6389450430870056,9.549291610717773,0.0017655399860814214,-0.004030041862279177,0.008395703509449959,4.712441921234131
428,4.474726994521916,16781104.0806636,88.70720672607422,237.42991638183594,2.621763229370117,26.24069595336914,0.6363519430160522,9.602689743041992,0.002791478531435132,-0.007465018890798092,0.015897147357463837,4.712534427642822
429,4.48072699457407,16781104.475648,88.70439147949219,237.42979431152344,2.62174129486084,25.921619415283203,1.9141170978546143,9.64610767364502,0.0036550082731992006,-0.010402148589491844,0.022995980456471443,4.7126688957214355
430,4.486726994626224,16781104.8681015,88.70063018798828,237.4296417236328,2.6217143535614014,26.082605361938477,1.268684983253479,9.66911792755127,0.004310700111091137,-0.01280189212411642,0.02975330874323845,4.712845325469971
431,4.492726994678378,16781105.2687917,88.69593811035156,237.429443359375,2.6216835975646973,26.24353790283203,0.6225064992904663,9.691576957702637,0.004835430067032576,-0.014796487055718899,0.03636880964040756,4.713059902191162
432,4.498726994730532,16781105.7378125,88.69029235839844,237.42921447753906,2.6216495037078857,26.245637893676758,1.897533655166626,9.703697204589844,0.005200252402573824,-0.016385549679398537,0.042704496532678604,4.713314056396484
433,4.504726994782686,16781106.1446944,88.68370056152344,237.428955078125,2.621612548828125,26.24442481994629,-0.030176637694239616,9.722060203552246,0.0055286576971411705,-0.017766939476132393,0.04889936372637749,4.713603973388672
434,4.51072699483484,16781106.5417293,88.67616271972656,237.4286346435547,2.6215734481811523,26.410337448120117,1.8814030885696411,9.732418060302734,0.005821703001856804,-0.01869507133960724,0.054843831807374954,4.713930606842041
435,4.516726994886994,16781106.9563152,88.66768646240234,237.4282684326172,2.621532917022705,26.08934783935547,0.5927892923355103,9.74604320526123,0.005906212143599987,-0.01946157030761242,0.06055745109915733,4.714291095733643
436,4.522726994939148,16781107.3637114,88.65828704833984,237.42787170410156,2.6214914321899414,25.453266143798828,1.8635318279266357,9.767443656921387,0.005920068826526403,-0.019986987113952637,0.06598653644323349,4.714683532714844
437,4.5287269949913025,16781107.7862308,88.64793395996094,237.42742919921875,2.6214489936828613,26.57168960571289,0.5699360370635986,9.753218650817871,0.005997500382363796,-0.020302433520555496,0.07113286107778549,4.715107440948486
438,4.5347269950434566,16781108.1746356,88.63668823242188,237.42694091796875,2.6214065551757812,24.97503089904785,1.2039599418640137,9.786319732666016,0.005969373043626547,-0.020459821447730064,0.07601795345544815,4.7155609130859375
439,4.540726995095611,16781108.5608323,88.62452697753906,237.42640686035156,2.621363878250122,25.299867630004883,1.8309054374694824,9.762409210205078,0.005924531724303961,-0.020437950268387794,0.08065570145845413,4.716041564941406
440,4.546726995147765,16781108.9454097,88.6114730834961,237.42581176757812,2.621321439743042,24.975948333740234,0.5409855246543884,9.790505409240723,0.005697151180356741,-0.020190782845020294,0.08488670736551285,4.716548442840576
441,4.552726995199919,16781109.3597985,88.5975341796875,237.4252166748047,2.6212799549102783,24.337446212768555,0.5299617052078247,9.793724060058594,0.005587401334196329,-0.020011790096759796,0.08890058100223541,4.717078685760498
442,4.558726995252073,16781109.7913905,88.5827407836914,237.42454528808594,2.6212387084960938,24.026493072509766,1.7981585264205933,9.77925968170166,0.0054980432614684105,-0.019518602639436722,0.09260780364274979,4.717630386352539
443,4.564726995304227,16781110.1966123,88.56710815429688,237.423828125,2.6211986541748047,23.22727394104004,1.7894647121429443,9.804009437561035,0.005255972966551781,-0.019009023904800415,0.09597370773553848,4.718203544616699
444,4.570726995356381,16781110.5863537,88.5506591796875,237.42308044433594,2.6211600303649902,22.578105926513672,-0.13995864987373352,9.802267074584961,0.005010662600398064,-0.018371334299445152,0.09911786019802094,4.7187957763671875
445,4.576726995408535,16781110.9762062,88.53341674804688,237.42225646972656,2.6211230754852295,22.272336959838867,1.7687063217163086,9.80968952178955,0.004755808040499687,-0.01769518107175827,0.10197688639163971,4.719404220581055
446,4.582726995460689,16781111.3603933,88.51539611816406,237.4214324951172,2.6210873126983643,21.46474266052246,0.4818762540817261,9.805471420288086,0.00450422428548336,-0.016853243112564087,0.10458207875490189,4.720028877258301
447,4.588726995512843,16781111.7381549,88.49663543701172,237.42056274414062,2.621053457260132,20.67186737060547,1.1127052307128906,9.815356254577637,0.004137988202273846,-0.01604161038994789,0.10695232450962067,4.720667362213135
448,4.594726995564997,16781112.1197272,88.47716522216797,237.41964721679688,2.621021032333374,19.871902465820312,1.1083011627197266,9.80443000793457,0.003959197551012039,-0.015098528005182743,0.10911818593740463,4.721319198608398
449,4.600726995617151,16781112.5242206,88.45700073242188,237.418701171875,2.6209912300109863,19.227230072021484,0.4610900580883026,9.835115432739258,0.003633919171988964,-0.014146467670798302,0.11105900257825851,4.721982002258301
450,4.606726995669305,16781112.9275369,88.4361801147461,237.41770935058594,2.6209628582000732,18.115095138549805,1.1001588106155396,9.805737495422363,0.0033756571356207132,-0.013189820572733879,0.1128116026520729,4.722655773162842
451,4.612726995721459,16781113.3299362,88.41471862792969,237.41668701171875,2.620936632156372,18.109615325927734,0.4486027657985687,9.829232215881348,0.0031278091482818127,-0.012108076363801956,0.11435088515281677,4.723338603973389
452,4.6187269957736135,16781113.7396384,88.39263153076172,237.41561889648438,2.6209123134613037,17.00587272644043,1.7283602952957153,9.820245742797852,0.002836990635842085,-0.011142185889184475,0.1157151535153389,4.724029541015625
453,4.6247269958257675,16781114.1268971,88.3699722290039,237.41455078125,2.6208903789520264,16.33702850341797,-0.8344632983207703,9.827339172363281,0.0025334942620247602,-0.010140880011022091,0.11691821366548538,4.724727630615234
454,4.630726995877922,16781114.5276688,88.34672546386719,237.4134063720703,2.620870590209961,16.21036148071289,1.7148176431655884,9.819660186767578,0.0023941390682011843,-0.009156736545264721,0.11800634115934372,4.725432395935059
455,4.636726995930076,16781115.0453837,88.32293701171875,237.41224670410156,2.6208529472351074,15.082454681396484,1.079280138015747,9.832810401916504,0.00211973930709064,-0.008150391280651093,0.11882634460926056,4.726142406463623
456,4.64272699598223,16781115.4326412,88.29862976074219,237.4110565185547,2.6208367347717285,14.275712013244629,0.4410853087902069,9.808918952941895,0.001916250097565353,-0.00709738302975893,0.11956895887851715,4.7268571853637695
457,4.648726996034384,16781115.8179259,88.27381896972656,237.40982055664062,2.6208229064941406,14.436623573303223,0.42718505859375,9.838813781738281,0.0017074147472158074,-0.006195381283760071,0.12011677771806717,4.727574348449707
458,4.654726996086538,16781116.1866825,88.24854278564453,237.4085693359375,2.6208107471466064,12.527997970581055,1.0874454975128174,9.81265926361084,0.0014885554555803537,-0.005226711742579937,0.1204913929104805,4.728294849395752
459,4.660726996138692,16781116.5735767,88.2227783203125,237.4073028564453,2.620800495147705,13.785758018493652,-0.22148196399211884,9.819355010986328,0.001330867293290794,-0.004363609477877617,0.12075891345739365,4.729015827178955
460,4.666726996190846,16781116.9414763,88.19658660888672,237.40597534179688,2.6207921504974365,11.889785766601562,1.0809743404388428,9.83983039855957,0.0011275677243247628,-0.003489084541797638,0.12079714238643646,4.729738235473633
461,4.672726996243,16781117.3217366,88.16996765136719,237.40464782714844,2.6207854747772217,12.038375854492188,0.43034133315086365,9.809386253356934,0.00099242536816746,-0.002696061274036765,0.12076018005609512,4.730460166931152
462,4.678726996295154,16781117.6983759,88.14293670654297,237.4032745361328,2.6207802295684814,11.399303436279297,0.4327819049358368,9.826264381408691,0.0007949302671477199,-0.001818948076106608,0.12068217992782593,4.7311811447143555
463,4.684726996347308,16781118.0854988,88.11551666259766,237.40187072753906,2.620776891708374,10.771754264831543,1.0772626399993896,9.822039604187012,0.0006834788946434855,-0.0011602428276091814,0.12039443105459213,4.731900215148926
464,4.690726996399462,16781118.503654,88.08773040771484,237.4004364013672,2.620774507522583,10.279874801635742,0.43992847204208374,9.804220199584961,0.0005483175627887249,-0.0003672286693472415,0.12005604058504105,4.732617378234863
465,4.696726996451616,16781118.8783358,88.0595703125,237.39901733398438,2.6207737922668457,10.427070617675781,-0.21116572618484497,9.833739280700684,0.00039147419738583267,0.00025603765971027315,0.11958325654268265,4.733331680297852
466,4.70272699650377,16781119.3044735,88.03107452392578,237.39755249023438,2.620774745941162,9.495078086853027,1.081546664237976,9.821795463562012,0.00027138821315020323,0.000915952434297651,0.11904045194387436,4.734042644500732
467,4.708726996555924,16781119.752315,88.00222778320312,237.3960723876953,2.620776653289795,9.627053260803223,-0.20829084515571594,9.806086540222168,0.00017221363668795675,0.001514866715297103,0.11837548762559891,4.734749794006348
468,4.7147269966080785,16781120.1413459,87.97307586669922,237.39454650878906,2.6207799911499023,8.536048889160156,1.090850830078125,9.828845977783203,8.940609404817224e-05,0.0020926829893141985,0.11767547577619553,4.7354536056518555
469,4.7207269966602325,16781120.5309527,87.94361114501953,237.3930206298828,2.620784044265747,8.666065216064453,-0.1989871710538864,9.79952621459961,-8.006685675354674e-05,0.002604807959869504,0.11690835654735565,4.736152172088623
470,4.726726996712387,16781120.9532931,87.91384887695312,237.39146423339844,2.620789051055908,8.377689361572266,1.0824167728424072,9.819808959960938,-0.00014923661365173757,0.0030192378908395767,0.11610159277915955,4.736845016479492
471,4.732726996764541,16781121.3786783,87.8837890625,237.389892578125,2.6207950115203857,8.346799850463867,-0.20255213975906372,9.800073623657227,-0.00025551021099090576,0.003551107831299305,0.11521021276712418,4.7375335693359375
472,4.738726996816695,16781121.8012201,87.85346221923828,237.38829040527344,2.620816946029663,7.244071006774902,0.4599720537662506,10.2385892868042,-0.00043589924462139606,0.004262001719325781,0.11410030722618103,4.738214492797852
473,4.744726996868849,16781122.2174911,87.82286071777344,237.3866729736328,2.6208386421203613,8.05921459197998,1.0734349489212036,9.776773452758789,-0.0005549811758100986,0.004638932179659605,0.11296596378087997,4.738889694213867
474,4.750726996921003,16781122.668621,87.79199981689453,237.38504028320312,2.620858907699585,6.905481338500977,-0.18083536624908447,9.760783195495605,-0.0006496589630842209,0.004918506834656,0.11189915984869003,4.739558219909668
475,4.756726996973157,16781123.0926233,87.7608871459961,237.3833465576172,2.6208789348602295,7.259593486785889,1.0854324102401733,9.76933765411377,-0.0006228824495337903,0.005326505284756422,0.11077574640512466,4.740219593048096
476,4.762726997025311,16781123.4929959,87.72954559326172,237.3816680908203,2.6208980083465576,6.104019641876221,-0.16765692830085754,9.778203010559082,-0.0006619722116738558,0.005504312459379435,0.10954965651035309,4.74087381362915
477,4.768726997077465,16781123.9005271,87.69796752929688,237.37997436523438,2.6209166049957275,6.922943115234375,0.4455636739730835,9.770461082458496,-0.0006952341645956039,0.005789873190224171,0.10839412361383438,4.74152135848999
478,4.774726997129619,16781124.3420751,87.66615295410156,237.3782501220703,2.6209352016448975,6.584389686584473,-0.18953002989292145,9.797219276428223,-0.0007506774854846299,0.005951259285211563,0.1071576252579689,4.742162227630615
479,4.780726997181773,16781124.7466643,87.6341323852539,237.3765106201172,2.62095308303833,5.662417888641357,1.115394949913025,9.763882637023926,-0.0007632672786712646,0.006114149931818247,0.10608422011137009,4.742794990539551
480,4.786726997233927,16781125.222369,87.60189056396484,237.374755859375,2.6209704875946045,6.102817535400391,-0.1830441802740097,9.789251327514648,-0.0006961876060813665,0.006240036338567734,0.10469482839107513,4.7434210777282715
481,4.792726997286081,16781125.6164415,87.56945037841797,237.3730010986328,2.6209869384765625,5.622914791107178,-0.17211171984672546,9.765691757202148,-0.0008040096727199852,0.006397114135324955,0.10373243689537048,4.744040012359619
482,4.798726997338235,16781125.9899512,87.53680419921875,237.37123107910156,2.6210033893585205,5.802929878234863,0.45905137062072754,9.800704002380371,-0.0007600741810165346,0.006467344705015421,0.10208509117364883,4.7446489334106445
483,4.804726997390389,16781126.3856617,87.50395965576172,237.36941528320312,2.621019124984741,5.504148960113525,1.1056420803070068,9.775276184082031,-0.0008178346324712038,0.006631121970713139,0.10140031576156616,4.745254039764404
484,4.8107269974425435,16781126.8006878,87.47091674804688,237.3675994873047,2.6210343837738037,5.620849132537842,-0.18204571306705475,9.780890464782715,-0.000836249440908432,0.006610514130443335,0.0993850827217102,4.745847702026367
485,4.816726997494698,16781127.2264375,87.43770599365234,237.36575317382812,2.6210501194000244,4.683014869689941,0.4870794713497162,9.802656173706055,-0.00082321313675493,0.006717372220009565,0.0991755947470665,4.746439456939697
486,4.822726997546852,16781127.6411876,87.404296875,237.36387634277344,2.6210646629333496,5.482260704040527,0.4563637673854828,9.775651931762695,-0.0007905851816758513,0.006752882618457079,0.0963561162352562,4.747014999389648
487,4.828726997599006,16781128.1045111,87.3707275390625,237.36203002929688,2.6210789680480957,4.341182708740234,-0.14740028977394104,9.784948348999023,-0.0008189873769879341,0.006793926935642958,0.09738487005233765,4.747596263885498
488,4.83472699765116,16781128.611305,87.33696746826172,237.3601531982422,2.621093273162842,5.458425998687744,-0.1900208592414856,9.8008451461792,-0.0008039631065912545,0.006765702273696661,0.09296529740095139,4.74815034866333
489,4.840726997703314,16781129.0091234,87.30306243896484,237.35826110839844,2.6211071014404297,4.204596996307373,0.49366217851638794,9.780034065246582,-0.0007942745578475296,0.006788488011807203,0.09628023207187653,4.748724937438965
490,4.846726997755468,16781129.4937148,87.26898193359375,237.3563232421875,2.6211204528808594,4.865798473358154,1.1064692735671997,9.793130874633789,-0.0008280739421024919,0.006787722930312157,0.08925069123506546,4.749257564544678
491,4.852726997807622,16781129.8762817,87.23477172851562,237.3544158935547,2.621134042739868,3.515810012817383,-0.7666688561439514,9.801350593566895,-0.0007920088246464729,0.006866978015750647,0.0951918438076973,4.749825954437256
492,4.858726997859776,16781130.2816465,87.20040130615234,237.3524627685547,2.621147394180298,4.707341194152832,1.1082526445388794,9.793752670288086,-0.000767083780374378,0.006830875761806965,0.08572932332754135,4.750336647033691
493,4.86472699791193,16781130.6857497,87.1658706665039,237.35052490234375,2.6211602687835693,4.313354969024658,-0.8030534386634827,9.786377906799316,-0.0007550399168394506,0.006794392596930265,0.09366240352392197,4.7508955001831055
494,4.870726997964084,16781131.08342,87.13121032714844,237.3485565185547,2.621173143386841,3.5883677005767822,1.1463258266448975,9.806055068969727,-0.0007600430399179459,0.006846175063401461,0.08177801221609116,4.751383304595947
495,4.876726998016238,16781131.4530857,87.09639739990234,237.34657287597656,2.621184825897217,4.311737060546875,-0.8059006333351135,9.771240234375,-0.0006799922557547688,0.006643637083470821,0.09237917512655258,4.751935005187988
496,4.882726998068392,16781131.8397392,87.06149291992188,237.34454345703125,2.6211977005004883,2.6554644107818604,1.821061134338379,9.829041481018066,-0.0007566645508632064,0.006889187265187502,0.077125184237957,4.752394676208496
497,4.888726998120546,16781132.2569449,87.02640533447266,237.3425750732422,2.621209144592285,4.924511909484863,-1.4765238761901855,9.761311531066895,-0.0005671511171385646,0.006541913375258446,0.09102851152420044,4.752938270568848
498,4.8947269981727,16781132.6782949,86.99124908447266,237.34054565429688,2.6212213039398193,2.1504287719726562,1.1977680921554565,9.825959205627441,-0.0007313888054341078,0.00680724810808897,0.07265865057706833,4.753371715545654
499,4.9007269982248545,16781133.1373941,86.95589447021484,237.33851623535156,2.621232509613037,5.294900894165039,-0.2153586596250534,9.780073165893555,-0.0006079485174268484,0.006282709073275328,0.0888054370880127,4.753901481628418
500,4.9067269982770085,16781133.5706904,86.92048645019531,237.33644104003906,2.621244430541992,1.830958604812622,1.2086089849472046,9.821378707885742,-0.0007133962935768068,0.006638159975409508,0.06967905908823013,4.754316329956055
501,4.912726998329163,16781133.9626365,86.88488006591797,237.3343963623047,2.6212549209594727,5.266916275024414,-0.8592777848243713,9.759567260742188,-0.0005532252253033221,0.006133046466857195,0.08610579371452332,4.7548298835754395
502,4.918726998381317,16781134.325614,86.8492202758789,237.33230590820312,2.6212658882141113,1.8315975666046143,1.2072840929031372,9.821693420410156,-0.0006560576730407774,0.006460078060626984,0.06716848164796829,4.755229949951172
503,4.924726998433471,16781134.7491061,86.81336975097656,237.33023071289062,2.6212759017944336,5.105122089385986,-0.856900155544281,9.77572250366211,-0.0005232402472756803,0.005987398326396942,0.08339817821979523,4.755727767944336
504,4.930726998485625,16781135.1398416,86.7774429321289,237.328125,2.621286630630493,2.123342990875244,0.5513244271278381,9.821834564208984,-0.000672459602355957,0.006202812306582928,0.06482434272766113,4.7561140060424805
505,4.936726998537779,16781135.5238783,86.74134826660156,237.32603454589844,2.621295928955078,4.653039455413818,-0.2023816555738449,9.772272109985352,-0.0004684387822635472,0.005765507463365793,0.08096655458211899,4.756596565246582
506,4.942726998589933,16781135.9240337,86.7051773071289,237.3238983154297,2.6213061809539795,2.283987522125244,0.5429837107658386,9.8214111328125,-0.0005780112696811557,0.0058814845979213715,0.06265561282634735,4.756968975067139
